"Time (s)"	"Linear Acceleration x (m/s^2)"	"Linear Acceleration y (m/s^2)"	"Linear Acceleration z (m/s^2)"	"Absolute acceleration (m/s^2)"
0.000000000E0	-8.377254009E-3	-1.027226448E-2	3.545761108E-3	1.372115972E-2
2.164625000E-2	-2.391755581E-3	7.684230804E-3	2.748775482E-2	2.864165782E-2
3.757537500E-2	-9.574413300E-3	1.726102829E-2	4.424667358E-2	4.844977411E-2
5.050693700E-2	8.490085602E-4	-3.112554550E-3	-1.061630249E-2	1.109570592E-2
6.197471800E-2	9.640455246E-4	-3.162384033E-3	-1.158142090E-2	1.204405939E-2
7.261960900E-2	2.762496471E-3	-9.387016296E-3	-3.393840790E-2	3.532085775E-2
8.297555400E-2	-2.366900444E-3	8.833169937E-3	3.244209290E-2	3.370632730E-2
9.311052700E-2	-1.111495495E-2	4.226016998E-2	1.591815948E-1	1.650704223E-1
1.032255130E-1	-9.572982788E-3	3.325891495E-2	1.247844696E-1	1.294950241E-1
1.132940060E-1	-1.690804958E-3	5.860805511E-3	2.189731598E-2	2.273104287E-2
1.232957530E-1	-2.525448799E-3	9.161472321E-3	3.419208527E-2	3.548815523E-2
1.332876260E-1	-3.288388252E-4	1.180887222E-3	3.897666931E-3	4.085882660E-3
1.433190630E-1	4.207849503E-3	-1.536512375E-2	-5.537033081E-2	5.761654762E-2
1.533167810E-1	8.494317532E-3	-3.651976585E-2	-1.612215042E-1	1.655240772E-1
1.633331400E-1	1.422798634E-2	-4.939007759E-2	-1.777791977E-1	1.850601483E-1
1.733973200E-1	8.611917496E-3	-2.804303169E-2	-1.010913849E-1	1.052617920E-1
1.834094100E-1	5.118250847E-4	-1.336097717E-3	-5.222320557E-3	5.414771835E-3
1.934439550E-1	-6.306290627E-3	2.137684822E-2	7.885932922E-2	8.194835414E-2
2.034372270E-1	-7.185161114E-3	2.467918396E-2	9.171009064E-2	9.524405171E-2
2.134513630E-1	-7.259964943E-3	2.547717094E-2	9.410762787E-2	9.776522364E-2
2.234699310E-1	-4.242241383E-3	1.458764076E-2	5.364227295E-2	5.575203424E-2
2.333482150E-1	2.546012402E-3	-8.218765259E-3	-2.936077118E-2	3.059550891E-2
2.434203570E-1	1.091152430E-2	-3.432941437E-2	-1.245241165E-1	1.296295709E-1
2.533849280E-1	1.662725210E-2	-5.126094818E-2	-1.876239777E-1	1.952099058E-1
2.634107140E-1	1.129144430E-2	-4.001665115E-2	-1.439123154E-1	1.497984766E-1
2.734221070E-1	6.888985634E-3	-2.503490448E-2	-9.073257446E-2	9.437480932E-2
2.834293030E-1	-1.045584679E-3	3.825902939E-3	1.418685913E-2	1.473084358E-2
2.934389010E-1	-4.670739174E-3	1.822257042E-2	6.777095795E-2	7.033335353E-2
3.034532000E-1	-5.093157291E-3	1.893949509E-2	7.053661346E-2	7.321242083E-2
3.134373500E-1	-5.473196507E-3	2.140617371E-2	8.105564117E-2	8.401307707E-2
3.233324250E-1	-5.144178867E-3	2.133846283E-2	8.012580872E-2	8.307790196E-2
3.333299620E-1	-2.233028412E-3	8.936166763E-3	3.357315063E-2	3.481376073E-2
3.433707310E-1	1.343786716E-3	-5.300760269E-3	-1.986408234E-2	2.060304806E-2
3.533071150E-1	2.559363842E-3	-9.470224380E-3	-3.487682343E-2	3.623021260E-2
3.632813070E-1	1.953661442E-3	-6.948947906E-3	-2.463531494E-2	2.567106177E-2
3.733214030E-1	-2.336502075E-4	2.588033676E-3	9.086608887E-3	9.450871483E-3
3.833054510E-1	4.049658775E-3	-1.399469376E-2	-4.879570007E-2	5.092417437E-2
3.932629750E-1	1.185584068E-2	-3.933858871E-2	-1.357631683E-1	1.418440108E-1
4.032462370E-1	1.252061129E-2	-3.987336159E-2	-1.386690140E-1	1.448300594E-1
4.132878680E-1	1.263290644E-2	-4.034519196E-2	-1.417284012E-1	1.478995083E-1
4.232981840E-1	4.516482353E-3	-1.429009438E-2	-5.105400085E-2	5.320823633E-2
4.333853420E-1	-1.257687807E-2	4.657506943E-2	1.670722961E-1	1.738981515E-1
4.433714210E-1	-3.036379814E-2	1.050105095E-1	3.958568573E-1	4.106723984E-1
4.533629600E-1	-7.416033745E-2	2.071173191E-1	7.806491852E-1	8.110551707E-1
4.633872300E-1	-3.437829018E-2	1.150317192E-1	4.006814957E-1	4.182819913E-1
4.734198650E-1	1.670217514E-2	-6.717514992E-2	-2.046899796E-1	2.160774193E-1
4.833981820E-1	6.354981661E-2	-1.805450916E-1	-6.350564957E-1	6.632735951E-1
4.933488410E-1	6.139302254E-2	-1.665463448E-1	-5.589084625E-1	5.864174773E-1
5.033241700E-1	4.913926125E-3	-1.051759720E-2	-3.589534760E-2	3.772588634E-2
5.133503350E-1	-7.897400856E-2	1.686077118E-1	5.908498764E-1	6.194909450E-1
5.233249170E-1	-7.018393278E-2	1.860394478E-1	6.693611145E-1	6.982698348E-1
5.333747080E-1	-4.421794415E-2	1.331610680E-1	4.885959625E-1	5.083434973E-1
5.433216040E-1	-4.494166374E-2	1.730921268E-1	6.420907974E-1	6.665292414E-1
5.533590520E-1	-3.187108040E-2	1.026628017E-1	3.745727539E-1	3.896923974E-1
5.633347760E-1	-7.213354111E-3	1.873588562E-2	6.585216522E-2	6.884456080E-2
5.733021380E-1	3.561031818E-2	-7.864522934E-2	-2.676534653E-1	2.812321894E-1
5.834663190E-1	2.809083462E-2	-6.912136078E-2	-2.379293442E-1	2.493536251E-1
5.933559090E-1	-1.910561323E-2	5.953717232E-2	2.265605927E-1	2.350306395E-1
6.033442040E-1	-2.493107319E-2	9.602856636E-2	3.746643066E-1	3.875775879E-1
6.133448520E-1	-2.701881528E-2	1.394731998E-1	5.470619202E-1	5.652075144E-1
6.233236760E-1	-2.099984884E-2	8.765864372E-2	3.529386520E-1	3.642673792E-1
6.333340880E-1	-6.010711193E-3	3.047013283E-2	1.122140884E-1	1.164326384E-1
6.433997940E-1	2.010345459E-2	-9.146547318E-2	-3.365554810E-1	3.493417717E-1
6.533191470E-1	3.043654561E-2	-2.021982670E-1	-7.391233444E-1	7.668858069E-1
6.632823230E-1	-4.531341791E-2	-2.435988188E-1	-1.133796692E0	1.160555311E0
6.733454110E-1	5.670525134E-3	-1.397502422E-1	-4.925937653E-1	5.120653304E-1
6.833229550E-1	-7.849460840E-2	2.228889465E-1	7.678298950E-1	8.033701723E-1
6.933662270E-1	-7.831132412E-2	2.011520863E-1	7.078208923E-1	7.400035412E-1
7.033388630E-1	5.087971687E-3	-1.896572113E-2	-6.921100616E-2	7.194268141E-2
7.133386810E-1	1.107683778E-2	-7.805085182E-2	-3.081445694E-1	3.180687150E-1
7.233175900E-1	-9.881258011E-4	1.571965218E-2	6.263351440E-2	6.458359686E-2
7.332985450E-1	-9.671956301E-3	1.335504055E-1	5.505838394E-1	5.666319985E-1
7.433060220E-1	4.209607840E-3	1.072804928E-1	4.624118805E-1	4.747120940E-1
7.532847610E-1	9.839773178E-3	1.802206039E-2	8.386039734E-2	8.633760501E-2
7.632861300E-1	-9.193152189E-3	5.939054489E-2	2.110290527E-1	2.194197165E-1
7.732638150E-1	-1.587638855E-1	2.917182446E-1	1.035110474E0	1.087087484E0
7.832726570E-1	-1.294262409E-1	1.864852905E-1	6.528568268E-1	6.911945831E-1
7.933035780E-1	2.784180641E-2	-4.977750778E-2	-1.558752060E-1	1.659820662E-1
8.032880390E-1	1.461899281E-1	-2.897369862E-1	-8.909854889E-1	9.482479410E-1
8.132877690E-1	2.135050297E-2	-1.162006855E-1	-3.787889481E-1	3.967864797E-1
8.233031340E-1	3.363180161E-2	-1.276469231E-1	-4.502677917E-1	4.692184133E-1
8.334718170E-1	-1.027819514E-2	6.374502182E-2	2.177696228E-1	2.271402160E-1
8.433936580E-1	-1.026061177E-2	6.114625931E-2	2.141981125E-1	2.229909787E-1
8.533555790E-1	-2.094250917E-2	2.339642048E-1	8.883905411E-1	9.189208841E-1
8.633285390E-1	1.452576369E-2	3.257682323E-1	1.109937668E0	1.156848117E0
8.733225190E-1	-3.521680832E-3	2.328085899E-2	7.994174957E-2	8.333717032E-2
8.832795090E-1	-4.342126846E-2	1.050446033E-1	4.599647522E-1	4.738009587E-1
8.936150040E-1	-6.383371353E-2	3.562552929E-1	1.253806114E0	1.304998984E0
9.034272520E-1	-5.246347189E-2	3.504776955E-1	1.286097527E0	1.334029190E0
9.133548760E-1	-3.541028500E-2	1.401755810E-1	5.601692200E-1	5.785262628E-1
9.233221880E-1	-1.873910427E-2	5.353832245E-2	2.160682678E-1	2.233897991E-1
9.333008440E-1	3.871703148E-2	-7.358527184E-2	-2.562704086E-1	2.694222023E-1
9.433336720E-1	1.612223387E-1	-7.647709846E-1	-1.683212757E0	1.855821243E0
9.533010860E-1	5.686823130E-1	-1.885124922E0	-2.799768448E0	3.422834922E0
9.632832930E-1	6.221059561E-1	-1.114980936E0	-2.460126400E0	2.771717917E0
9.732863960E-1	2.663714886E-1	-8.262400627E-1	-1.871958733E0	2.063457271E0
9.832774480E-1	9.269773960E-2	-4.481558800E-1	-1.188196182E0	1.273281874E0
9.933014740E-1	1.482599974E-2	-1.305861473E-1	-3.985481262E-1	4.196583861E-1
1.003426987E0	-2.794563770E-4	8.341884613E-2	2.719373703E-1	2.844445734E-1
1.013338743E0	2.490993142E-1	9.759116173E-2	8.282890320E-1	8.704235887E-1
1.023291121E0	3.357263207E-1	1.493430138E-2	1.355722427E0	1.396752840E0
1.033352310E0	4.120828211E-1	3.082990646E-2	1.244535446E0	1.311347098E0
1.043515405E0	3.355699778E-2	-1.880745888E-1	5.439682007E-1	5.765410015E-1
1.053442452E0	-5.875770450E-1	-3.251268864E-1	2.965631485E-1	7.341007949E-1
1.063435976E0	-5.885405540E-1	-2.394642830E-1	2.256965637E-1	6.742863379E-1
1.073350738E0	-3.952314556E-1	1.348106861E-1	4.318428040E-1	6.007245890E-1
1.083322619E0	-9.475886822E-3	3.763344288E-1	6.589279175E-1	7.588829917E-1
1.093344559E0	2.061962485E-1	2.354688644E-1	6.409883499E-1	7.133221879E-1
1.103304529E0	4.163674116E-1	1.124043465E-1	3.098306656E-1	5.310288127E-1
1.113316014E0	3.339120150E-1	-2.398681641E-2	4.532051086E-2	3.378262124E-1
1.123286257E0	4.989438653E-1	1.331908703E-1	-5.584802628E-1	7.606477454E-1
1.133286878E0	2.626445889E-1	-1.718237400E-1	-9.468021393E-1	9.974667256E-1
1.143278689E0	1.721595526E-1	-3.473749161E-1	-1.273616791E0	1.331318134E0
1.153283594E0	-6.144160032E-2	-4.788031578E-1	-1.285438538E0	1.373091318E0
1.163321047E0	-4.190021753E-1	-3.655965328E-1	-7.859277725E-1	9.627596332E-1
1.173405773E0	-7.462471128E-1	-1.376798153E-1	-4.346094131E-1	8.744860358E-1
1.183395636E0	-8.608623743E-1	-4.980802536E-3	-1.353921890E-1	8.714584791E-1
1.193383568E0	-8.817701340E-1	1.475880146E-1	8.938121796E-2	8.984930681E-1
1.203357034E0	-1.009297967E0	1.324729919E-1	-2.258739471E-1	1.042713057E0
1.213330267E0	-1.061757803E0	9.023308754E-2	-2.922172546E-1	1.104926498E0
1.223308383E0	-9.956793785E-1	3.422191143E-1	-4.493961334E-1	1.144748108E0
1.233299941E0	-1.269816637E0	5.598285198E-1	-9.702606201E-1	1.693294993E0
1.243281220E0	-1.525596261E0	4.274973869E-1	-1.254830360E0	2.021088123E0
1.253288360E0	-1.413478374E0	4.490420818E-1	-8.610181808E-1	1.714908806E0
1.263309930E0	-1.014447451E0	5.273270607E-1	-1.509323120E-1	1.153238059E0
1.273262715E0	-3.499549925E-1	-1.546697617E-1	-8.916282654E-2	3.928628789E-1
1.283346607E0	-4.145371914E-1	-3.915426731E-1	2.215385437E-3	5.702207080E-1
1.293323053E0	-6.300357580E-1	-3.505816460E-1	2.793855667E-1	7.732456542E-1
1.303401276E0	-7.377196550E-1	-2.062582970E-1	9.922628403E-1	1.253538320E0
1.313369888E0	-7.763826847E-1	-1.243975163E-1	1.661893845E0	1.838514609E0
1.323301694E0	3.230040967E-1	-2.388358116E-2	1.681147575E0	1.712062862E0
1.333370597E0	1.164219141E0	-1.631673098E0	8.976621628E-1	2.196260609E0
1.343492048E0	2.401989102E-1	-1.044168234E0	1.280782700E0	1.669846442E0
1.353396774E0	-5.521854162E-1	-2.106083632E-1	1.371393204E0	1.493313074E0
1.363331137E0	-1.075777173E0	7.079434395E-2	-1.754293919E0	2.059090945E0
1.373360818E0	-1.367506862E0	6.106877327E-2	-1.832274914E0	2.287145770E0
1.383332159E0	-9.306515455E-1	4.092955589E-2	-3.682117462E-1	1.001682294E0
1.393384829E0	-2.873191237E-2	1.015155315E-1	-1.609458923E-1	1.924435143E-1
1.403338664E0	2.733417451E-1	-2.969740629E-1	-6.438884735E-1	7.599353065E-1
1.413340082E0	3.422618508E-1	-5.503920317E-1	-1.013182640E0	1.202752520E0
1.423332791E0	1.321987510E-1	-5.865474939E-1	-9.463815689E-1	1.121228142E0
1.433291645E0	-7.490201294E-2	-4.585599899E-1	-1.068046570E0	1.164736473E0
1.443302072E0	-2.178272158E-1	-5.348248482E-1	-1.018227577E0	1.170586910E0
1.453320786E0	-6.458072364E-2	-2.607606649E-1	-8.621540070E-1	9.030372783E-1
1.463368143E0	-4.529003054E-2	-4.931080341E-2	-4.459199905E-1	4.509183742E-1
1.473314821E0	-1.802729368E-1	1.382076740E-2	3.914642334E-1	4.312001755E-1
1.483283660E0	-2.332763672E-1	1.238384247E-1	1.197469711E0	1.226249374E0
1.493378580E0	2.037834525E-1	4.101538658E-2	-3.822803497E-2	2.113559559E-1
1.503304040E0	-1.345273852E-2	-3.532519341E-1	-1.602268219E-1	3.881243867E-1
1.513324270E0	-1.921136379E-1	-3.962172270E-1	2.497329712E-1	5.062235650E-1
1.523289385E0	-2.177856565E-1	-2.439379692E-1	8.292140961E-1	8.913654369E-1
1.533262442E0	-2.037962973E-1	-7.654309273E-2	9.937543869E-1	1.017319791E0
1.543329471E0	-2.675914466E-1	-4.396474361E-2	1.017836571E0	1.053341998E0
1.553280485E0	-3.898330331E-1	-1.184655428E-1	8.659353256E-1	9.569994079E-1
1.563309992E0	-3.981295228E-1	-1.067293882E-1	4.382839203E-1	6.016569405E-1
1.573260746E0	-3.624265492E-1	-7.247507572E-2	9.381103516E-2	3.813215841E-1
1.583255123E0	-3.560574949E-1	-7.026016712E-2	-2.998895645E-1	4.707942031E-1
1.593383811E0	-3.376634717E-1	-1.095101833E-1	-6.654825211E-1	7.542387462E-1
1.603400155E0	-4.443130493E-1	-3.060992360E-1	-9.409675598E-1	1.084680034E0
1.613398827E0	-3.734636903E-1	-1.930540204E-1	-7.171936035E-1	8.313312503E-1
1.623416163E0	-4.742043018E-1	-6.420910358E-2	3.187189102E-1	5.749558875E-1
1.633357331E0	-1.587498486E-1	5.913301706E-1	3.951768875E-1	7.287233066E-1
1.643353415E0	-1.884587109E-1	5.844460726E-1	-1.853296280E0	1.952383415E0
1.653305957E0	-3.905013800E-1	-3.363370895E-2	-1.455991745E0	1.507824431E0
1.663300228E0	4.667216539E-2	9.980523586E-2	-5.917491913E-1	6.019189991E-1
1.673286364E0	3.569344282E-1	-1.011865139E-1	-3.291072845E-1	4.959359852E-1
1.683398932E0	5.031587481E-1	-4.572312236E-1	1.578865051E-1	6.979665222E-1
1.693401216E0	4.925005436E-1	-7.198665142E-1	5.187196732E-1	1.014807707E0
1.703361358E0	3.597733378E-1	-7.096673250E-1	8.419942856E-1	1.158455413E0
1.713391429E0	-1.861572266E-3	-6.875320077E-1	1.115308762E0	1.310197451E0
1.723294464E0	-4.359323978E-1	-3.272826076E-1	9.999370575E-1	1.138870089E0
1.733349482E0	-4.876389205E-1	-1.919142604E-1	6.840972900E-1	8.617493269E-1
1.743314991E0	-3.021525145E-1	2.403042316E-1	7.156944275E-2	3.926378113E-1
1.753305745E0	-1.934489012E-1	4.238066077E-1	-3.742961884E-1	5.976053503E-1
1.763426122E0	-2.646909058E-1	1.155425310E-1	-7.930164337E-1	8.439706252E-1
1.773425311E0	-1.998040974E-1	-2.018651962E-1	-1.093059540E0	1.129358399E0
1.783410905E0	-1.846275032E-1	-3.399728537E-1	-1.089872360E0	1.156499294E0
1.793339702E0	-3.654701710E-1	-3.364319801E-1	-8.115339279E-1	9.514947395E-1
1.803277601E0	-4.099630713E-1	-1.843377948E-1	-3.417730331E-1	5.646759678E-1
1.813341050E0	-3.901022673E-1	-2.571153641E-2	-3.084239960E-1	4.979620702E-1
1.823310775E0	-4.339099824E-1	-2.708995342E-2	-1.901502609E-1	4.745196099E-1
1.833308637E0	-4.639968872E-1	-1.645413637E-1	-1.388959885E-1	5.115262137E-1
1.843364568E0	-4.974390566E-1	-2.854257822E-1	-1.816568375E-1	6.015918041E-1
1.853340534E0	-5.858973861E-1	-3.961992264E-1	-3.269300461E-1	7.791872875E-1
1.863369517E0	-5.539941788E-1	-4.106619358E-1	-3.451318741E-1	7.711477071E-1
1.873403008E0	-6.536921263E-1	-4.772256911E-1	1.479501724E-1	8.227678954E-1
1.883364254E0	-6.872184277E-1	-5.141264796E-1	8.560905457E-1	1.212223670E0
1.893337877E0	-4.158339500E-1	-3.758765161E-1	1.310529709E0	1.425373336E0
1.903299188E0	5.865719318E-1	3.512800932E-1	1.135325432E0	1.325303049E0
1.913286844E0	1.819755316E0	1.656036854E0	1.412106514E0	2.836901880E0
1.923250672E0	2.000097036E0	1.260718822E0	7.066669464E-1	2.467626041E0
1.933318086E0	1.235155344E0	4.011354744E-1	-8.932590485E-2	1.301728662E0
1.943315293E0	2.432594001E-1	-1.027137935E-1	-3.823843002E-1	4.646966884E-1
1.953329396E0	-5.808828473E-1	-5.212008953E-1	-5.287809372E-1	9.427006604E-1
1.963456448E0	-6.932150126E-1	-5.153304935E-1	-5.612440109E-1	1.030100680E0
1.973352974E0	-4.732106328E-1	-4.024209976E-1	-5.143299103E-1	8.064776618E-1
1.983326237E0	-1.404764056E-1	-1.495622396E-1	-2.188615799E-1	3.000047920E-1
1.993315368E0	9.280806780E-2	1.123093367E-1	-1.259307861E-1	1.925754072E-1
2.003432934E0	2.459263504E-1	1.880499721E-1	-2.774219513E-1	4.156988103E-1
2.013484717E0	1.356592476E-1	2.063939571E-1	-2.840566635E-1	3.764174346E-1
2.023369108E0	-3.765344620E-2	1.139799356E-1	-3.071508408E-1	3.297739327E-1
2.033346804E0	-1.996616274E-1	-9.274423122E-3	-3.608989716E-1	4.125516308E-1
2.043446652E0	-3.421578407E-1	-1.401621699E-1	-3.627099991E-1	5.179536324E-1
2.053347076E0	-2.699820101E-1	-2.817949057E-1	-3.283948898E-1	5.100410359E-1
2.063394288E0	-1.462576091E-1	-3.560342193E-1	-1.184148788E-1	4.027080047E-1
2.073371894E0	-1.765216589E-1	-3.293719292E-1	1.769409180E-1	4.134656603E-1
2.083328697E0	-3.802055717E-1	-3.142078817E-1	3.467741013E-1	6.029387589E-1
2.093358098E0	-8.314940929E-1	-5.512604713E-1	4.115257263E-1	1.079177445E0
2.103326299E0	-1.187151909E0	-8.988102674E-1	5.382051468E-1	1.583304876E0
2.113369899E0	-1.294072151E0	-9.884571433E-1	6.375751495E-1	1.748763085E0
2.123322199E0	-1.125501752E0	-8.203648329E-1	5.554294586E-1	1.499418066E0
2.133350849E0	-8.676340580E-1	-5.410999060E-1	4.248170853E-1	1.107270302E0
2.143410174E0	-5.901298523E-1	-2.787271440E-1	1.656780243E-1	6.733433531E-1
2.153343837E0	-4.162520766E-1	-1.080249846E-1	-3.662176132E-1	5.648455796E-1
2.163312668E0	-3.511071801E-1	1.719558239E-2	-6.683073044E-1	7.551202507E-1
2.173252584E0	-4.481723011E-1	5.847758055E-2	-6.880226135E-1	8.231969118E-1
2.183270042E0	-6.747355461E-1	-1.158249974E-1	-1.308984756E-1	6.970063831E-1
2.193260271E0	-7.107713819E-1	-2.287264913E-1	1.436195374E-1	7.603540863E-1
2.203269885E0	-7.118271589E-1	-2.178775221E-1	2.577638626E-1	7.877885044E-1
2.213278192E0	-5.996730924E-1	-1.567231268E-1	1.302986145E-1	6.333622069E-1
2.223283346E0	-4.235533774E-1	-9.411880374E-2	-7.468795776E-2	4.402659466E-1
2.233376923E0	-3.042774200E-1	-3.597941995E-2	-1.908512115E-1	3.609756944E-1
2.243347211E0	-2.718210220E-1	-1.964670420E-2	-1.740503311E-1	3.233669414E-1
2.253280355E0	-2.272963822E-1	-2.846688032E-3	-1.620826721E-1	2.791819149E-1
2.263308927E0	-1.545313746E-1	4.209646583E-2	-1.490230560E-1	2.187691235E-1
2.273295213E0	-1.531535387E-1	6.820881367E-2	-1.707620621E-1	2.393076065E-1
2.283274856E0	-1.747473776E-1	2.904993296E-2	-1.410598755E-1	2.264474179E-1
2.293292178E0	-1.831359416E-1	-2.478182316E-3	-2.878856659E-2	1.854014457E-1
2.303274339E0	-1.506706476E-1	-5.166667700E-2	5.648612976E-3	1.593831748E-1
2.313271919E0	-5.820419267E-2	-9.460699558E-2	2.331066132E-2	1.134971303E-1
2.323283209E0	-3.460457921E-2	-9.771481156E-2	-1.651859283E-2	1.049691631E-1
2.333277354E0	-3.446355462E-3	-1.842377633E-1	-1.413183212E-1	2.322203667E-1
2.343266427E0	1.677181274E-1	-1.741230041E-1	-2.756395340E-1	3.666406190E-1
2.353267963E0	4.054686427E-1	-1.073741913E-2	-1.740951538E-1	4.413946476E-1
2.363283231E0	5.225864649E-1	1.455161572E-1	2.079010010E-2	5.428662759E-1
2.373249865E0	6.571425796E-1	2.913802862E-1	-1.647949219E-2	7.190343627E-1
2.383254682E0	6.084130406E-1	1.012785733E-1	1.257801056E-2	6.169132709E-1
2.393269591E0	3.336732090E-1	-1.828823239E-1	-2.938175201E-2	3.816373175E-1
2.403301045E0	3.616187274E-1	-1.589546204E-1	-3.891277313E-1	5.544863088E-1
2.413351272E0	1.799594760E-1	-1.152370274E-1	-6.664171219E-1	6.998405289E-1
2.423297386E0	1.940558851E-2	-1.243193746E-1	-7.577362061E-1	7.681119982E-1
2.433249943E0	-8.993373066E-2	-1.748004854E-1	-5.350303650E-1	5.700006816E-1
2.443287221E0	-1.668863297E-1	-2.071383446E-1	-1.320829391E-1	2.969903090E-1
2.453278860E0	-1.935088933E-1	-2.532538176E-1	2.683506012E-1	4.166476125E-1
2.463290680E0	-1.964683533E-1	-2.849173844E-1	5.684175491E-1	6.654894739E-1
2.473252090E0	-2.102222443E-1	-2.839638293E-1	6.880512238E-1	7.734619156E-1
2.483293295E0	-2.460630089E-1	-2.495439053E-1	4.656610489E-1	5.828030349E-1
2.493348397E0	-2.470047623E-1	-2.248005867E-1	1.920185089E-1	3.852502617E-1
2.503328948E0	-3.197912574E-1	-1.955820918E-1	8.244419098E-2	3.838174665E-1
2.513276224E0	-3.408385515E-1	-1.994214505E-1	3.386592865E-2	3.963416888E-1
2.523284862E0	-3.379193246E-1	-2.148227096E-1	7.400512695E-4	4.004232938E-1
2.533342181E0	-3.249799609E-1	-1.136463284E-1	-1.575469971E-2	3.446384679E-1
2.543309840E0	-3.245408833E-1	-8.289274573E-2	-2.227087021E-1	4.022401748E-1
2.553360170E0	-2.810409963E-1	-2.940100431E-2	-3.950490952E-1	4.857079866E-1
2.563314335E0	-1.738106310E-1	2.492612600E-2	-3.854475021E-1	4.235578167E-1
2.573292917E0	-9.217095375E-2	4.712453485E-2	-3.602886200E-1	3.748654375E-1
2.583264708E0	-2.861130238E-2	6.504845619E-2	-3.161296844E-1	3.240183416E-1
2.593249604E0	1.175641567E-1	9.453463554E-2	-6.310863495E-1	6.488667881E-1
2.603294552E0	1.657624096E-1	1.036791801E-1	-4.674501419E-1	5.066914090E-1
2.613304026E0	2.679647505E-2	-1.047185659E-1	-8.299827576E-3	1.084108678E-1
2.623321763E0	-1.017819196E-1	-2.186689377E-1	1.024789810E-1	2.620641239E-1
2.633290131E0	-4.078306258E-2	-1.097045243E-1	1.810579300E-1	2.155929379E-1
2.643285815E0	7.809948921E-2	-4.364156723E-2	3.953170776E-2	9.781039068E-2
2.653284157E0	3.014940023E-2	-3.087773919E-2	-2.754659653E-1	2.788259657E-1
2.663293828E0	-1.149494871E-1	-8.513179421E-2	-1.523704529E-1	2.089917747E-1
2.673326164E0	-1.185811013E-1	-9.338688850E-2	2.518901825E-1	2.936515836E-1
2.683279832E0	-9.327646345E-2	-5.483743548E-2	3.674373627E-1	3.830376724E-1
2.693367166E0	-1.348912716E-3	8.200228214E-3	3.585710526E-1	3.586673431E-1
2.703344833E0	5.188553035E-2	2.074980736E-2	2.362327576E-1	2.427520927E-1
2.713411666E0	-2.324660122E-2	-3.843113780E-2	1.057090759E-1	1.148554115E-1
2.723352583E0	-6.336924434E-2	-4.235726595E-2	-2.238941193E-2	7.944233678E-2
2.733331541E0	-5.115337670E-2	4.034936428E-3	-1.111221313E-1	1.223972089E-1
2.743398520E0	2.626255155E-3	3.504666686E-2	-2.395362854E-1	2.421008015E-1
2.753369010E0	-5.553662777E-4	1.942223310E-2	-3.573265076E-1	3.578543902E-1
2.763326755E0	-4.498049617E-3	-5.088400841E-2	-2.501144409E-1	2.552775907E-1
2.773320627E0	-5.192358792E-2	-9.959855676E-2	-1.608181000E-1	1.961591007E-1
2.783381063E0	-5.789193511E-2	-1.135300696E-1	-1.132659912E-1	1.704984974E-1
2.793290781E0	-5.349510908E-2	-1.118199229E-1	-1.877050400E-1	2.249413343E-1
2.803288640E0	-6.242561340E-2	-6.595328450E-2	-3.721837997E-1	3.831025629E-1
2.813294570E0	-1.077796668E-1	-9.920954704E-2	-4.093589783E-1	4.347801328E-1
2.823474035E0	-1.329551190E-1	-1.484396309E-1	-3.053054810E-1	3.645858258E-1
2.833379267E0	-3.700475395E-2	-1.508029401E-1	-1.953334808E-1	2.495316559E-1
2.843487883E0	6.135106087E-3	-7.689636946E-2	-5.186843872E-2	9.295711967E-2
2.853389191E0	-3.730342537E-2	-1.083308309E-1	-5.919075012E-2	1.289599138E-1
2.863327345E0	-7.432796806E-2	-1.774023771E-1	-5.567741394E-2	2.002404172E-1
2.873413922E0	-6.519062072E-2	-1.707055867E-1	2.808094025E-2	1.848749674E-1
2.883351211E0	-3.311242163E-2	-1.107052565E-1	4.838085175E-2	1.252708789E-1
2.893341855E0	-4.727260023E-2	-1.142305061E-1	3.988552094E-2	1.299005852E-1
2.903317677E0	-7.754542679E-2	-1.256240904E-1	9.475231171E-2	1.754215092E-1
2.913305588E0	-3.040981293E-2	-8.747851849E-2	9.092807770E-2	1.297889180E-1
2.923314044E0	-1.670120656E-2	-6.856489182E-2	1.206579208E-1	1.397798575E-1
2.933282272E0	-3.052400053E-2	-8.353095502E-2	1.480913162E-1	1.727430838E-1
2.943410386E0	-9.819620848E-2	-9.288073331E-2	1.169652939E-1	1.787462054E-1
2.953379443E0	-6.197427958E-2	-6.440408528E-2	5.954074860E-2	1.073955226E-1
2.963367471E0	-3.720133007E-2	-6.848908961E-2	3.441429138E-2	8.519998712E-2
2.973321485E0	-2.074733377E-2	-7.448732108E-2	6.842613220E-3	7.762495872E-2
2.983310492E0	-1.395845413E-2	-4.282455146E-2	-1.598930359E-2	4.779579981E-2
2.993347996E0	-1.069173217E-3	-5.612532794E-2	-4.723167419E-2	7.336229696E-2
3.003393248E0	-7.639437914E-3	-6.605853885E-2	-3.055858612E-2	7.318414277E-2
3.013337374E0	-5.709976703E-2	-5.632014573E-2	-1.621246338E-2	8.182411734E-2
3.023722937E0	-6.518810987E-2	-8.223088831E-2	-4.848957062E-2	1.155969166E-1
3.033482218E0	-3.053091466E-2	-6.723793596E-2	-3.283786774E-2	8.081709188E-2
3.043345359E0	-1.301184297E-2	-5.855245888E-2	-7.702445984E-2	9.762410518E-2
3.053382929E0	-2.697914839E-2	-7.287377864E-2	-2.182693481E-1	2.316893834E-1
3.063369214E0	-6.026941538E-2	-9.551582485E-2	-2.446336746E-1	2.694463026E-1
3.073417857E0	-6.795094162E-2	-1.063365936E-1	-2.123680115E-1	2.470323337E-1
3.083472678E0	2.760593593E-2	-1.019458175E-1	3.894805908E-2	1.125699281E-1
3.093371089E0	2.371995151E-2	-9.605018795E-2	1.154851913E-1	1.520694056E-1
3.103295794E0	-8.819103241E-3	-7.283502072E-2	5.197143555E-2	8.990965987E-2
3.113272647E0	-1.595638692E-2	-6.983418018E-2	-1.025066376E-1	1.250561064E-1
3.123311073E0	-3.363589942E-2	-8.149281889E-2	-2.917003632E-1	3.047319398E-1
3.133312286E0	-3.806038201E-2	-8.099836856E-2	-3.336725235E-1	3.454658902E-1
3.143333893E0	-1.571936905E-2	-6.367816031E-2	-2.176542282E-1	2.273221716E-1
3.153305696E0	-2.264961600E-2	-7.723101974E-2	-5.019187927E-2	9.485178048E-2
3.163306098E0	-2.466374636E-2	-7.780036330E-2	2.268886566E-2	8.471116538E-2
3.173280799E0	-5.024428666E-2	-8.716575801E-2	6.325817108E-2	1.188442423E-1
3.183299649E0	-7.249095291E-2	-8.933726698E-2	6.197071075E-2	1.306769089E-1
3.193375074E0	-4.126615077E-2	-7.477617264E-2	8.678436279E-4	8.541150008E-2
3.203329287E0	-3.656461835E-2	-8.492022008E-2	-6.860446930E-2	1.151303101E-1
3.213288393E0	3.258897364E-2	-3.671942651E-2	-8.543586731E-2	9.853753046E-2
3.223316446E0	1.775392890E-2	-3.080251813E-2	-7.836723328E-2	8.605475214E-2
3.233309973E0	9.396076202E-4	-7.117815316E-3	-8.449745178E-2	8.480191929E-2
3.243325236E0	-5.156367272E-2	-3.915705532E-2	-9.781360626E-2	1.173012741E-1
3.253360368E0	-7.297945768E-2	-4.738655686E-2	-5.364418030E-2	1.022212556E-1
3.263294434E0	-2.104779333E-2	-1.441404969E-2	3.605270386E-2	4.416527921E-2
3.273329967E0	8.100889623E-3	-9.947322309E-3	5.874156952E-2	6.012608106E-2
3.283300233E0	1.641586423E-4	-1.516041160E-2	2.278614044E-2	2.736920211E-2
3.293296366E0	-1.071082056E-2	-7.705837488E-3	-8.354187012E-3	1.561710757E-2
3.303369433E0	3.621168435E-3	-3.828763962E-2	-4.903507233E-2	6.231769032E-2
3.313358966E0	-7.032951713E-2	-6.609122455E-2	-2.261648178E-1	2.458959450E-1
3.323352733E0	-7.594536990E-2	-6.308217347E-2	-2.799901962E-1	2.968864594E-1
3.333337116E0	-3.487468511E-2	-7.009778917E-2	-2.368574142E-1	2.494621783E-1
3.343383808E0	-1.771850884E-2	-7.546374202E-2	-1.817874908E-1	1.976244260E-1
3.353416154E0	-5.050434917E-2	-6.831006706E-2	-1.626834869E-1	1.835289391E-1
3.363340327E0	-3.257090598E-2	-6.104717404E-2	-1.292610168E-1	1.466152511E-1
3.373363413E0	-1.313328743E-3	-4.065927863E-2	1.103401184E-3	4.069544527E-2
3.383405956E0	1.538240910E-2	-2.107474208E-2	6.443309784E-2	6.951537499E-2
3.394643728E0	4.239919037E-2	5.693733692E-5	2.477550507E-2	4.910723202E-2
3.404005614E0	2.072358131E-2	-1.047522575E-2	-3.148937225E-2	3.912515485E-2
3.413684557E0	2.160774171E-2	-2.252440527E-2	-4.468727112E-2	5.450867394E-2
3.423731028E0	2.716016024E-2	-3.890927508E-2	-6.145668030E-2	7.764360595E-2
3.433523764E0	8.909635246E-3	-4.256339371E-2	-1.141366959E-1	1.221401221E-1
3.443456132E0	-1.716263592E-3	-5.985387415E-2	-1.692123413E-1	1.794944240E-1
3.453392316E0	-2.188332379E-2	-5.087252706E-2	-1.775999069E-1	1.860339238E-1
3.463325408E0	-8.736506104E-3	-2.940134704E-2	-2.673921585E-1	2.691455595E-1
3.473389454E0	-5.798338354E-2	-5.255960673E-2	-2.793798447E-1	2.901339047E-1
3.483328977E0	-4.512214661E-2	-5.181152001E-2	-2.207345963E-1	2.311800244E-1
3.493296738E0	-2.422556281E-3	-2.821020782E-2	-1.716642380E-1	1.739836061E-1
3.503262619E0	4.337856174E-2	-3.660978749E-2	-8.910369873E-2	1.056477415E-1
3.513307059E0	2.162734419E-2	-3.565647453E-2	-3.648376465E-2	5.540930676E-2
3.523302279E0	1.303508878E-2	-5.067261681E-2	-2.696418762E-2	5.886166025E-2
3.533253889E0	3.588417172E-2	-4.355442524E-2	-1.265239716E-2	5.783376948E-2
3.543299194E0	3.738700598E-2	-3.688836098E-2	-9.290790558E-2	1.067259027E-1
3.553326847E0	4.602529854E-2	-5.540676415E-2	-5.463790894E-2	9.040762530E-2
3.563298673E0	5.205869675E-3	-6.208340079E-2	-4.388713837E-2	7.620715614E-2
3.573320586E0	-2.002537251E-2	-7.047378272E-2	-2.115345001E-2	7.625639673E-2
3.583281043E0	-6.936870515E-3	-6.152670085E-2	6.264495850E-2	8.807977018E-2
3.593346271E0	3.118880093E-3	-4.228227586E-2	7.103443146E-2	8.272489781E-2
3.603304885E0	-2.203064784E-2	-5.492000654E-2	3.273391724E-2	6.762444751E-2
3.613260692E0	-3.556040302E-2	-2.909676358E-2	-2.352428436E-2	5.161933619E-2
3.623312596E0	-6.119682640E-2	-1.747182198E-2	-1.145029068E-1	1.310008847E-1
3.633290048E0	-4.725188762E-2	-8.978188038E-3	-1.935157776E-1	1.994033724E-1
3.643372274E0	-4.074712098E-2	6.862018257E-3	-2.150754929E-1	2.190088646E-1
3.653432887E0	-4.540290684E-2	-1.711330190E-2	-1.935491562E-1	1.995383795E-1
3.663357193E0	-2.864286304E-2	-3.841869533E-3	-1.373100281E-1	1.403182717E-1
3.673386346E0	-1.806984469E-2	-1.217307895E-2	-5.832958221E-2	6.226590801E-2
3.683445923E0	-3.581671789E-2	-2.970362827E-2	-1.525783539E-2	4.896881001E-2
3.693391211E0	-1.652538776E-2	-4.140141606E-2	-1.766872406E-2	4.795153285E-2
3.703299355E0	3.920868039E-4	-5.462694913E-2	-1.527976990E-2	5.672502685E-2
3.713244427E0	4.061799869E-2	-5.588225648E-2	2.422142029E-2	7.320741498E-2
3.723251463E0	6.271694601E-2	-4.629145935E-2	3.858566284E-2	8.697797366E-2
3.733272481E0	6.817248464E-2	-4.003201425E-2	7.450103760E-2	1.086298966E-1
3.743259490E0	3.177208081E-2	-3.614267334E-2	-2.107620239E-3	4.816845460E-2
3.753237995E0	2.188074961E-2	-3.187303618E-2	-1.265964508E-1	1.323681193E-1
3.763253247E0	-3.531608731E-3	-3.706008568E-2	-1.840476990E-1	1.877750721E-1
3.773267373E0	-2.318424359E-2	-1.058221608E-2	-1.936235428E-1	1.952935451E-1
3.783273936E0	-4.563416541E-2	-1.459527388E-2	-1.900396347E-1	1.959861266E-1
3.793272218E0	-3.876068443E-2	-7.761493325E-3	-1.673040390E-1	1.719106538E-1
3.803302859E0	-3.213433921E-2	-2.158962749E-2	-1.194276810E-1	1.255456043E-1
3.813484679E0	8.343838155E-3	-1.761348546E-2	-6.436252594E-2	6.724871189E-2
3.823491089E0	2.459350973E-3	-3.056846000E-2	-3.682422638E-2	4.792184056E-2
3.833401794E0	1.180272549E-3	-3.076770157E-2	-8.470058441E-2	9.012343481E-2
3.843344147E0	9.575366974E-3	-6.007537991E-2	-1.074352264E-1	1.234628155E-1
3.853333823E0	1.429233700E-2	-5.815630034E-2	-4.158496857E-2	7.290909255E-2
3.863296161E0	3.409731016E-2	-7.980294526E-2	6.736183167E-2	1.098578764E-1
3.873382830E0	9.900894016E-3	-7.966805995E-2	2.906227112E-2	8.537940665E-2
3.883354165E0	1.381319016E-3	-7.004325837E-2	-4.635429382E-2	8.400408705E-2
3.893367832E0	-9.965628386E-3	-4.132592678E-2	-8.466243744E-2	9.473581311E-2
3.903351166E0	-1.050274074E-2	-3.511927649E-2	-1.636743546E-1	1.677288451E-1
3.913302833E0	9.236507118E-3	-1.793101430E-2	-2.211389542E-1	2.220569102E-1
3.923304666E0	5.048241466E-3	-2.301960811E-2	-2.474832535E-1	2.486027913E-1
3.933295583E0	2.514958382E-3	-6.823118776E-3	-1.768627167E-1	1.770121479E-1
3.943352041E0	3.278547153E-2	-1.978594810E-3	-1.529302597E-1	1.564176023E-1
3.953406270E0	4.234898835E-2	-2.218558639E-2	-1.649103165E-1	1.717004646E-1
3.963341885E0	4.742297903E-2	-2.497850731E-2	-1.816749573E-1	1.894166172E-1
3.973324692E0	3.953121603E-2	-2.615948394E-2	-1.864728928E-1	1.924036782E-1
3.983269096E0	7.221224904E-2	-3.550048918E-2	-1.421909332E-1	1.633804001E-1
3.993339298E0	1.654582843E-2	-3.869285434E-2	-9.192371368E-2	1.010983212E-1
4.003376899E0	4.014560953E-2	-4.051849246E-2	2.393722534E-4	5.703924521E-2
4.013336699E0	2.163583413E-2	-3.169300407E-2	2.057743073E-2	4.354292687E-2
4.023306599E0	-4.728719592E-3	-2.737863734E-2	-3.808879852E-2	4.714559518E-2
4.033254049E0	1.866937429E-2	-3.495285660E-2	-5.126285553E-2	6.479296318E-2
4.043268774E0	3.920078278E-3	-2.708756737E-2	-5.844974518E-2	6.454049916E-2
4.053424137E0	2.094966918E-2	-3.918582946E-2	-9.676551819E-2	1.064799670E-1
4.063353818E0	1.674965955E-2	-3.630749881E-2	-1.398735046E-1	1.454763997E-1
4.073316159E0	2.578624338E-2	-1.957857236E-2	-1.542539597E-1	1.576151481E-1
4.083277829E0	3.335064650E-2	1.460643858E-2	-1.291322708E-1	1.341668999E-1
4.093379164E0	4.221013933E-2	4.706654698E-3	-8.485412598E-2	9.488978426E-2
4.103332332E0	2.265064046E-2	1.238201559E-2	-1.794347763E-1	1.812821138E-1
4.113292416E0	-3.119161539E-2	-2.230011858E-2	-1.578950882E-1	1.624840639E-1
4.123326458E0	-1.607444137E-3	-2.243026160E-2	-8.368206024E-2	8.665095336E-2
4.133280979E0	7.409846410E-3	-1.537755877E-2	-1.066398621E-2	2.012699032E-2
4.143270239E0	1.453235000E-2	-2.134662122E-2	1.686191559E-2	3.084139477E-2
4.153249369E0	-4.236929119E-3	-4.418751970E-2	1.924800873E-2	4.838361609E-2
4.163316934E0	-2.406475134E-3	-2.886124887E-2	1.325607300E-2	3.185100124E-2
4.173405217E0	-5.687773228E-4	-1.952778734E-2	3.672599792E-3	1.987827898E-2
4.183388358E0	-2.055497468E-2	-1.797638834E-2	-9.928321838E-2	1.029699712E-1
4.193326429E0	-3.795299307E-2	-1.034136862E-2	-1.519603729E-1	1.569691961E-1
4.203300964E0	-9.064663202E-3	-2.042022720E-2	-1.771030426E-1	1.785066987E-1
4.213288732E0	-4.598160274E-3	-1.721852832E-2	-1.603488922E-1	1.613362576E-1
4.223443616E0	-1.214386709E-2	-5.594348535E-3	-9.091949463E-2	9.189735985E-2
4.233591558E0	-1.441218238E-2	-1.661624573E-2	-1.447925568E-1	1.464537303E-1
4.243470529E0	3.414957318E-4	-2.778626606E-2	-1.783123016E-1	1.804645952E-1
4.253344514E0	3.609956242E-3	-1.507061906E-2	-1.280364990E-1	1.289709286E-1
4.263330507E0	4.751976952E-2	-2.276807278E-2	-9.212493896E-2	1.061297226E-1
4.273325003E0	6.566782296E-2	-1.739836298E-2	-6.219863892E-2	9.210665931E-2
4.283316751E0	4.299930483E-2	-4.066266119E-2	-5.741214752E-2	8.245330142E-2
4.293275625E0	9.780226275E-3	-1.950917020E-2	-6.699180603E-2	7.045681389E-2
4.303236062E0	2.629184630E-3	-8.326807991E-3	-9.332942963E-2	9.373702992E-2
4.313400781E0	-4.046125337E-3	1.386338845E-3	-5.741691589E-2	5.757599583E-2
4.323367140E0	-7.613675203E-3	-1.273035258E-2	-5.023574829E-2	5.237996118E-2
4.333304320E0	1.580895483E-2	-1.610666513E-3	-3.706932068E-2	4.033177203E-2
4.343345410E0	5.463852733E-2	1.078072377E-2	-4.664707184E-2	7.264669287E-2
4.353309455E0	5.625221506E-2	2.713254653E-2	-6.101322174E-2	8.731036598E-2
4.363294477E0	4.021685570E-2	-1.799175516E-3	-1.124897003E-1	1.194762118E-1
4.373346488E0	3.225822002E-2	-9.225141257E-4	-8.615398407E-2	9.199974327E-2
4.383334494E0	1.723139733E-2	-1.524325460E-3	-6.221199036E-2	6.457225694E-2
4.393334497E0	1.517962664E-4	-8.473344147E-3	-5.024337769E-2	5.095309220E-2
4.403362498E0	-1.826798543E-2	-1.581041887E-2	-4.425716400E-2	5.042207059E-2
4.413333999E0	-1.895701513E-2	-1.266556419E-2	-4.186153412E-2	4.766731561E-2
4.423469749E0	-3.449507989E-3	-3.566513956E-2	-5.981731415E-2	6.972813175E-2
4.433389624E0	-1.073740423E-3	-5.004152656E-2	-5.382919312E-2	7.350434905E-2
4.443336062E0	-3.071390092E-4	-4.060327262E-2	-6.101036072E-2	7.328699882E-2
4.453344281E0	4.026280716E-2	-3.489550203E-2	-2.509593964E-2	5.889478660E-2
4.463296390E0	3.810609132E-2	-2.733247913E-2	-3.347492218E-2	5.761691615E-2
4.473276945E0	3.157110512E-2	-1.054644771E-2	-9.093379974E-2	9.683448856E-2
4.483274222E0	2.090073004E-2	-6.104124710E-3	-1.232509613E-1	1.251594995E-1
4.493280361E0	2.185048535E-3	9.051684290E-3	-1.543693542E-1	1.546499433E-1
4.503330930E0	-5.543891340E-3	7.540628314E-3	-1.759119034E-1	1.761607038E-1
4.513270215E0	1.057114638E-2	1.080050319E-2	-1.675271988E-1	1.682074979E-1
4.523348357E0	9.206283838E-3	1.306673139E-2	-1.375951767E-1	1.385204959E-1
4.533331928E0	9.619089775E-3	1.287192106E-3	-9.090518951E-2	9.142175470E-2
4.543301714E0	3.349481896E-2	-1.519356854E-2	-8.132648468E-2	8.925662178E-2
4.553292107E0	1.709161326E-2	-3.036247194E-2	-9.329605103E-2	9.958993967E-2
4.563372803E0	-2.997214906E-3	-2.612117305E-2	-1.076583862E-1	1.108225027E-1
4.573343651E0	2.103587613E-4	-3.094728664E-2	-9.329223633E-2	9.829150604E-2
4.583341575E0	1.749091782E-3	-2.708069980E-2	-4.181766510E-2	4.985118593E-2
4.593306537E0	7.969071157E-3	-4.285954311E-2	1.564311981E-2	4.631580431E-2
4.603299518E0	2.799146995E-2	-9.158961475E-3	-1.547908783E-2	3.327177671E-2
4.613294509E0	-3.609065898E-3	-5.707982928E-3	-4.181098938E-2	4.235286600E-2
4.623599004E0	-4.366109148E-3	5.892701447E-4	-6.215667725E-2	6.231262051E-2
4.633449752E0	2.302892134E-2	-1.281635650E-2	-6.694316864E-2	7.194427037E-2
4.643385126E0	3.164900839E-2	2.357237041E-3	-7.771492004E-2	8.394536971E-2
4.653335813E0	-4.041101784E-4	2.720616758E-4	-1.004571915E-1	1.004583727E-1
4.663372156E0	3.566102125E-3	6.251439452E-3	-9.207439423E-2	9.235524702E-2
4.673319328E0	2.409989573E-2	3.897484392E-3	-9.566211700E-2	9.872809118E-2
4.683301414E0	2.198822331E-3	-5.475223064E-3	-1.315717697E-1	1.317039995E-1
4.693287957E0	2.266469598E-2	-1.076468825E-2	-6.213760376E-2	6.701230303E-2
4.703273228E0	5.120323226E-2	1.162827015E-3	2.506256104E-3	5.127771914E-2
4.713323864E0	7.403808087E-2	-1.276329160E-3	-2.383041382E-2	7.778917057E-2
4.723368182E0	4.378302395E-2	-1.262428612E-2	-7.410621643E-2	8.699458087E-2
4.733390841E0	2.454407699E-2	-2.710061707E-2	-8.966255188E-2	9.683092673E-2
4.743339670E0	3.170415387E-2	-1.448196173E-2	-6.212043762E-2	7.123081747E-2
4.753286085E0	3.490877897E-2	-2.960612997E-2	-6.570053101E-2	8.007312630E-2
4.763248292E0	2.885353751E-2	-2.334158868E-2	-5.850315094E-2	6.928185231E-2
4.773249896E0	4.888286442E-2	-2.627555281E-3	-4.053306580E-2	6.355602177E-2
4.783245198E0	5.824669078E-2	3.994863480E-3	-6.999015808E-3	5.880154882E-2
4.793253849E0	6.227930635E-2	3.531605005E-3	-2.493858337E-2	6.717973783E-2
4.803243674E0	5.796689540E-2	-3.399021924E-3	-1.422386169E-1	1.536344312E-1
4.813244087E0	1.534123719E-2	-1.434967294E-2	-2.272148132E-1	2.281837812E-1
4.823234793E0	1.327120326E-2	-9.903181344E-3	-1.697340012E-1	1.705398164E-1
4.833258146E0	4.607734829E-2	-2.175009996E-2	-1.361951828E-1	1.454142933E-1
4.843240823E0	4.595426843E-2	-3.306214511E-2	-1.158246994E-1	1.289195921E-1
4.853247661E0	2.625274658E-2	-2.673599124E-2	-1.110258102E-1	1.171782850E-1
4.863285580E0	3.489401191E-2	-3.922015429E-3	-1.098260880E-1	1.153028355E-1
4.873291540E0	2.395150997E-2	-1.126537472E-2	-1.122274399E-1	1.153064689E-1
4.883292020E0	1.441500522E-2	-3.313608468E-3	-9.667015076E-2	9.779514520E-2
4.893276760E0	1.334222220E-2	-5.386061966E-3	-1.074476242E-1	1.084067180E-1
4.903265630E0	-7.382556796E-4	-3.262415528E-2	-1.062526703E-1	1.111508456E-1
4.913260065E0	1.135801896E-3	-1.539912820E-2	-8.351421356E-2	8.492965950E-2
4.923237282E0	-4.983682185E-3	-9.692717344E-3	-6.556701660E-2	6.646667980E-2
4.933224891E0	-1.343542337E-2	-1.798621938E-2	-2.727127075E-2	3.532331945E-2
4.943365195E0	-3.943243995E-3	-3.473319113E-3	-1.052284241E-2	1.176194419E-2
4.953328347E0	-2.430879325E-2	-1.181408018E-2	1.101303101E-2	2.918521495E-2
4.963283423E0	-1.451511309E-2	4.635103047E-3	1.100349426E-2	1.879493480E-2
4.973273461E0	-5.927479826E-3	-7.666870952E-4	1.578617096E-2	1.687975177E-2
4.983280480E0	9.203471243E-3	-6.764564663E-3	5.010604858E-3	1.247274545E-2
4.993264990E0	2.360071056E-2	6.881982088E-3	-4.167175293E-2	4.838274701E-2
5.003235245E0	2.681417577E-2	1.144736260E-2	-8.954620361E-2	9.417305726E-2
5.013342872E0	2.229063027E-2	3.689482808E-3	-1.302328110E-1	1.321781734E-1
5.023357686E0	3.030587919E-2	6.926462054E-3	-9.430599213E-2	9.929774590E-2
5.033320593E0	6.420414150E-2	1.791559160E-2	-7.633781433E-2	1.013439791E-1
5.043315546E0	4.802507907E-2	-4.157453775E-3	-1.110458374E-1	1.210573032E-1
5.053326023E0	1.638561860E-2	-2.607624978E-2	-1.397714615E-1	1.431241445E-1
5.063309761E0	1.952009089E-2	-2.712784335E-2	-1.361837387E-1	1.402246930E-1
5.073350630E0	2.830831148E-2	-1.650357991E-2	-9.908580780E-2	1.043634321E-1
5.083300565E0	2.325825766E-2	-5.502492189E-3	-7.036972046E-2	7.431770669E-2
5.093327532E0	1.562455669E-2	6.355829537E-3	-7.517051697E-2	7.703979467E-2
5.103299516E0	7.430139929E-3	-1.059820876E-2	-6.678962708E-2	6.803222246E-2
5.113450008E0	2.360113710E-2	-1.579046622E-2	-7.636165619E-2	8.147057771E-2
5.123361254E0	5.258129537E-2	-1.020361856E-2	-8.713054657E-2	1.022772634E-1
5.133427877E0	4.514759034E-2	-3.054916114E-2	1.582241058E-2	5.676182552E-2
5.143331688E0	1.031111032E-1	-2.309536189E-2	2.659988403E-2	1.089626045E-1
5.153319594E0	9.894428402E-2	-1.933629066E-2	1.104068756E-2	1.014187372E-1
5.163290547E0	5.275861919E-2	-3.807142377E-3	-4.761409760E-2	7.116929480E-2
5.173292023E0	1.490846835E-2	6.594695151E-3	-7.993507385E-2	8.158044168E-2
5.183253261E0	-8.400432765E-3	3.142856061E-3	-1.529531479E-1	1.532158943E-1
5.193264380E0	-3.187988698E-2	-1.422178373E-2	-1.948394775E-1	1.979419317E-1
5.203226440E0	-1.930352487E-2	-5.951970816E-4	-2.319383621E-1	2.327410238E-1
5.213222470E0	-2.789035439E-3	1.987390220E-3	-1.840486526E-1	1.840805122E-1
5.223229985E0	6.415233016E-3	-8.291102946E-3	-1.146221161E-1	1.151005087E-1
5.233255742E0	3.704445064E-2	-3.222398460E-3	-8.590412140E-2	9.360658763E-2
5.243242621E0	6.774647161E-3	-8.673444390E-3	-6.676483154E-2	6.766584968E-2
5.253386060E0	1.383637078E-2	-7.214136422E-3	-6.318664551E-2	6.508487606E-2
5.263312780E0	3.619207814E-2	-6.288297474E-3	-7.277107239E-2	8.151710362E-2
5.273358140E0	4.203751683E-2	-5.660936236E-3	-1.039028168E-1	1.122274225E-1
5.283319320E0	2.343174629E-2	9.320676327E-4	-1.098947525E-1	1.123689108E-1
5.293290910E0	1.251820102E-2	1.634900272E-2	-1.099061966E-1	1.118184569E-1
5.303303205E0	2.071323246E-2	1.525195688E-2	-8.956718445E-2	9.318766398E-2
5.313270852E0	5.429280922E-3	1.634746045E-2	-6.563377380E-2	6.785653114E-2
5.323469676E0	8.364785463E-3	1.288089156E-2	-6.563568115E-2	6.740867632E-2
5.333343588E0	6.231367588E-4	2.022555098E-2	-7.880592346E-2	8.136236713E-2
5.343300044E0	-8.264588192E-3	-7.892455906E-3	-6.324768066E-2	6.427179309E-2
5.353753272E0	2.018650994E-3	2.775724977E-3	-7.522678375E-2	7.530503698E-2
5.363540386E0	-7.050303742E-3	-8.972808719E-3	-6.925010681E-2	7.018401080E-2
5.373399443E0	-8.462280966E-4	-2.440948412E-2	-7.883453369E-2	8.253134386E-2
5.383334471E0	3.531209379E-2	-1.004467905E-2	-3.574657440E-2	5.124116633E-2
5.393362485E0	4.129601642E-2	1.688510180E-3	1.093482971E-2	4.275257349E-2
5.403360992E0	5.188870430E-2	-1.233797520E-2	-1.181125641E-2	5.462754840E-2
5.413288246E0	5.966095254E-2	-1.325819641E-3	-6.567478180E-2	8.873761333E-2
5.423268373E0	6.681562960E-2	-5.573526025E-3	-1.195325851E-1	1.370526595E-1
5.433245436E0	6.028210372E-2	-1.348949969E-2	-1.278991699E-1	1.420355459E-1
5.443296968E0	3.198618069E-2	6.655819714E-3	-1.242952347E-1	1.285173959E-1
5.453279734E0	3.603627533E-2	1.126963645E-3	-7.999610901E-2	8.774543090E-2
5.463344617E0	4.099791497E-2	-3.057241440E-3	-5.125808716E-2	6.570819779E-2
5.473331558E0	2.670105360E-2	-8.876152337E-3	-4.765510559E-2	5.534204037E-2
5.483314529E0	4.934765399E-3	-1.043482125E-2	-7.637214661E-2	7.723951179E-2
5.493291514E0	1.398598962E-2	-1.221126318E-2	-1.206512451E-1	1.220714783E-1
5.503297507E0	1.452996023E-2	-1.522883028E-2	-1.804962158E-1	1.817193466E-1
5.513296003E0	1.257642731E-2	-5.529142916E-3	-1.350011826E-1	1.356984054E-1
5.523290251E0	3.594105691E-2	-7.804475725E-3	-9.191036224E-2	9.899587921E-2
5.533289875E0	4.392620176E-2	-7.145322859E-3	-9.072113037E-2	1.010489502E-1
5.543266687E0	3.103090636E-2	-1.870219037E-2	-7.516384125E-2	8.344035058E-2
5.553328093E0	3.935761005E-2	-2.387953550E-2	-7.396221161E-2	8.711866867E-2
5.563302296E0	4.199646413E-2	-2.454067767E-2	-6.437778473E-2	8.068734118E-2
5.573277398E0	3.583420068E-2	-2.052714303E-2	-7.154846191E-2	8.261135480E-2
5.583347949E0	3.337778896E-2	-1.284861192E-2	-2.604866028E-2	4.424586225E-2
5.593357724E0	3.217204660E-2	5.098477006E-3	-4.758167267E-2	5.766325194E-2
5.603317612E0	2.864228934E-2	-8.185207844E-3	-7.390213013E-2	7.968000504E-2
5.613401056E0	2.162882499E-2	-1.914534345E-2	-1.121921539E-1	1.158508940E-1
5.623320778E0	-9.655259550E-3	-3.415606916E-3	-1.516838074E-1	1.520291677E-1
5.633256639E0	-2.125213854E-2	3.417164087E-3	-1.684408188E-1	1.698105999E-1
5.643323069E0	3.312170133E-2	1.240759343E-2	-1.241588593E-1	1.290984810E-1
5.653291284E0	5.773674697E-2	4.028543830E-3	-6.192493439E-2	8.476118578E-2
5.663248892E0	6.860367954E-2	-2.003468573E-3	-5.475521088E-2	8.779870073E-2
5.673280696E0	5.096854270E-2	1.206001639E-2	-6.673240662E-2	8.483189514E-2
5.683294098E0	4.866794497E-2	7.304370403E-3	-1.038408279E-1	1.149123154E-1
5.693326799E0	2.870652080E-2	-1.117435098E-2	-1.457300186E-1	1.489502225E-1
5.703299649E0	2.673340961E-3	-7.148250937E-3	-1.373376846E-1	1.375495687E-1
5.713291074E0	-9.489730000E-4	-1.828784123E-2	-1.205711365E-1	1.219538627E-1
5.723301787E0	-6.980521604E-3	-1.338183135E-2	-9.662914276E-2	9.780077874E-2
5.733292143E0	-2.728730068E-2	-1.749006286E-2	-1.157884598E-1	1.202392053E-1
5.743290821E0	-2.391859889E-2	-2.023570985E-2	-1.038312912E-1	1.084551537E-1
5.753252660E0	-1.347313169E-2	-1.805740595E-2	-9.187316895E-2	9.459531891E-2
5.763231080E0	1.629870385E-4	-2.034389600E-2	-7.034015656E-2	7.322320871E-2
5.773312790E0	1.375186816E-2	-1.498229802E-2	-1.289558411E-2	2.408068149E-2
5.783281145E0	2.401012555E-2	-1.637592912E-3	5.053997040E-2	5.597728510E-2
5.793333822E0	2.824530751E-2	1.657760888E-2	3.736782074E-2	4.968871642E-2
5.803316161E0	3.328236192E-2	7.136180997E-3	-1.649475098E-2	3.782482656E-2
5.813291830E0	2.836468443E-2	1.250855625E-2	-1.433744431E-1	1.466875940E-1
5.823270165E0	3.574323282E-2	1.082324237E-2	-1.840648651E-1	1.878153238E-1
5.833264332E0	2.401332185E-2	3.698565066E-3	-1.672973633E-1	1.690524379E-1
5.843250416E0	2.532423660E-2	2.956259251E-2	-1.541252136E-1	1.589649185E-1
5.853388958E0	2.895977534E-2	1.619408280E-2	-1.265907288E-1	1.308668389E-1
5.863395229E0	3.239832073E-2	-8.038915694E-3	-1.014490128E-1	1.067997076E-1
5.873421364E0	4.991532862E-2	-1.582804695E-2	-1.241884232E-1	1.347769696E-1
5.883361932E0	4.955486208E-2	-2.255599201E-2	-9.784603119E-2	1.119745639E-1
5.893407216E0	6.510426849E-2	-2.642380074E-2	-6.671905518E-2	9.689280337E-2
5.903339358E0	5.945283175E-2	2.664156258E-3	-3.799152374E-2	7.060518966E-2
5.913283429E0	6.345486641E-2	-9.839437902E-3	-3.081607819E-2	7.122475191E-2
5.923272964E0	5.536044389E-2	-1.292669773E-2	-2.842617035E-2	6.356040767E-2
5.933237232E0	3.834048659E-2	4.718452692E-4	-1.166820526E-2	4.007945314E-2
5.943279866E0	1.715721749E-2	-1.639099047E-2	-2.962112427E-2	3.795320386E-2
5.953254683E0	3.860532865E-2	-3.863123432E-2	-5.714607239E-2	7.904693071E-2
5.963238591E0	5.949518085E-2	-1.500472426E-3	-1.164245605E-2	6.064218618E-2
5.973265545E0	4.816336185E-2	-1.621067524E-2	-2.120304108E-2	5.506418407E-2
5.983273522E0	2.332208678E-2	-9.572282434E-4	-1.265325546E-1	1.286674916E-1
5.993397511E0	4.054116085E-3	-7.283493876E-3	-1.863737106E-1	1.865600310E-1
6.003395005E0	-1.433903724E-2	9.565636516E-3	-1.935462952E-1	1.943123202E-1
6.013350752E0	-2.401249297E-2	1.584852487E-2	-1.468515396E-1	1.496434103E-1
6.023330126E0	-5.876900628E-3	1.487653702E-2	-1.073398590E-1	1.085250876E-1
6.033346813E0	1.214648224E-2	1.006831974E-2	-1.049356461E-1	1.061150221E-1
6.043319156E0	5.035182461E-3	-2.426328510E-2	-1.324625015E-1	1.347604333E-1
6.053304828E0	1.773390360E-2	-2.028336376E-2	-6.421947479E-2	6.964227972E-2
6.063345164E0	1.762182638E-2	-3.439598903E-2	-4.147243500E-2	5.668840879E-2
6.073317832E0	1.254561171E-2	-3.781106323E-2	-7.019996643E-2	8.071619517E-2
6.083300666E0	1.662828773E-2	-2.827632055E-2	-1.049118042E-1	1.099205937E-1
6.093275583E0	-4.583636299E-3	-3.033829480E-2	-1.144933701E-1	1.185333440E-1
6.103280541E0	4.874579608E-3	-1.283655316E-2	-1.192913055E-1	1.200789499E-1
6.113270020E0	2.908915468E-2	3.505284339E-2	-9.775829315E-2	1.078497317E-1
6.123291260E0	7.895279676E-3	5.353346467E-3	-1.013669968E-1	1.018148407E-1
6.133302380E0	1.026168466E-4	1.981361955E-2	-1.504640579E-1	1.517630481E-1
6.143307940E0	2.093430236E-2	5.496136844E-3	-1.325225830E-1	1.342783957E-1
6.153311720E0	2.415659465E-2	2.347119153E-2	-7.507324219E-2	8.228262021E-2
6.163289610E0	4.311492667E-3	8.891634643E-3	-8.346271515E-2	8.404567184E-2
6.173305055E0	-4.563739523E-3	-1.094096154E-2	-9.783267975E-2	9.854829062E-2
6.183314777E0	-5.898512900E-4	-1.193974167E-2	-5.234527588E-2	5.369295357E-2
6.193288138E0	-1.941898838E-3	-2.193108201E-3	-1.523590088E-2	1.551494023E-2
6.203301819E0	2.279629931E-2	-2.128166705E-2	-2.361583710E-2	3.911890050E-2
6.213377159E0	2.554523572E-2	-5.706913769E-3	-1.643466949E-2	3.090673542E-2
6.223341829E0	1.370330155E-2	-7.729522884E-3	-4.636764526E-2	4.896411466E-2
6.233328664E0	-7.165185176E-3	-1.355835795E-2	-6.552410126E-2	6.729470109E-2
6.243274582E0	1.505615748E-2	-8.787132800E-3	-4.277801514E-2	4.619372425E-2
6.253302041E0	3.160902858E-2	7.451646030E-3	5.419445038E-2	6.317987154E-2
6.263298270E0	2.573109232E-2	1.054059714E-2	-2.000904083E-2	3.425718925E-2
6.273265385E0	1.798855513E-2	-5.379661918E-3	-1.456813812E-1	1.468863292E-1
6.283323942E0	6.967477500E-3	3.950841725E-3	-1.396732330E-1	1.399027052E-1
6.293302221E0	8.186642081E-4	1.660156250E-2	-1.073360443E-1	1.086154156E-1
6.303333360E0	4.376398399E-3	2.896662802E-2	-8.458423615E-2	8.951374981E-2
6.313291430E0	3.303612396E-2	2.029594034E-2	-7.141304016E-2	8.125966395E-2
6.323257965E0	2.767510526E-2	3.773132712E-2	-4.746532440E-2	6.665224316E-2
6.333264232E0	-1.348702051E-2	1.360951364E-2	-7.498455048E-2	7.739380721E-2
6.343283366E0	9.634159505E-3	9.155221283E-3	-3.067493439E-2	3.343032614E-2
6.353262933E0	3.551826626E-2	1.630404592E-2	6.631183624E-2	7.697161020E-2
6.363271216E0	3.803126141E-2	3.031579405E-2	1.692838669E-1	1.761319159E-1
6.373351358E0	4.470837116E-2	3.036838770E-2	3.464870453E-1	3.506769881E-1
6.383344429E0	3.151821718E-2	5.852872878E-2	4.842061996E-1	4.887480474E-1
6.393376964E0	3.931199014E-2	8.340848982E-2	5.285930634E-1	5.365752840E-1
6.403347732E0	5.716298521E-2	1.311501712E-1	4.880542755E-1	5.085911424E-1
6.413328616E0	-1.072066557E-2	1.291979402E-1	5.218153000E-1	5.376785729E-1
6.423326558E0	-3.574956208E-4	1.710257381E-1	8.872795105E-1	9.036121185E-1
6.433496029E0	3.368712217E-2	2.094602287E-1	1.214579582E0	1.232968763E0
6.443385764E0	1.041585803E-1	2.396911830E-1	1.325380325E0	1.350901136E0
6.453305632E0	1.455602050E-1	2.020134032E-1	1.332404137E0	1.355469650E0
6.463352566E0	1.297464520E-1	2.070327103E-1	1.178849220E0	1.203902890E0
6.473316533E0	1.533038020E-1	1.902486980E-1	1.098129272E0	1.124982010E0
6.483362016E0	1.146138757E-1	3.317907453E-1	1.044926643E0	1.102312628E0
6.493317758E0	4.352516681E-2	3.955510855E-1	8.448476791E-1	9.338751000E-1
6.503647129E0	-1.334129274E-2	3.683196306E-1	8.462572098E-1	9.230322884E-1
6.513458314E0	1.464446336E-1	4.159730077E-1	1.147466660E0	1.229292198E0
6.523361907E0	1.383821666E-1	3.644135594E-1	1.441978455E0	1.493736499E0
6.533360203E0	8.398105204E-2	4.081641436E-1	1.412666321E0	1.472846536E0
6.543309851E0	-5.995866656E-2	3.096681833E-1	1.458015442E0	1.491743428E0
6.553361175E0	-1.197755337E-2	3.112077713E-1	2.145780563E0	2.168263813E0
6.563338837E0	5.769777298E-2	3.032585382E-1	2.737969398E0	2.755316897E0
6.573332168E0	1.547499001E-1	1.618006229E-1	3.384757042E0	3.392153771E0
6.583509334E0	3.119444549E-1	2.612472773E-1	4.230872154E0	4.250392766E0
6.593420917E0	1.326273382E-1	-8.186602592E-2	4.363070488E0	4.365853426E0
6.603559208E0	6.477695704E-2	-3.373198509E-1	4.059518814E0	4.074024268E0
6.613452354E0	-7.310009003E-2	-5.538625717E-1	3.942788124E0	3.982170961E0
6.623354427E0	-1.296308041E-1	-6.729590893E-1	4.617166519E0	4.667751573E0
6.633307463E0	3.871339560E-2	-8.603110313E-1	5.412982941E0	5.481059944E0
6.643393481E0	8.755981922E-2	-1.314675093E0	5.714826584E0	5.864748946E0
6.653355990E0	2.875428200E-1	-1.642510891E0	5.299427986E0	5.555579167E0
6.663407245E0	3.826854229E-1	-1.985477209E0	4.251081467E0	4.707468695E0
6.673321872E0	1.175551414E-1	-2.441762924E0	3.177577019E0	4.009117247E0
6.683486186E0	-2.614579201E-1	-2.766050577E0	2.107871056E0	3.487479954E0
6.693526343E0	-2.585326433E-1	-2.824637890E0	2.113466263E-1	2.844307602E0
6.703410421E0	-5.209604502E-1	-2.717152119E0	-1.356065750E0	3.081108525E0
6.713368960E0	-7.390935421E-1	-2.183589697E0	-2.339946747E0	3.284763919E0
6.723324230E0	-6.164505482E-1	-1.239879608E0	-3.813411474E0	4.057021049E0
6.733396865E0	-1.023178101E-1	-1.208042622E0	-2.536027908E0	2.810920394E0
6.743371182E0	-1.797264814E-1	-1.548390388E0	-1.880038738E0	2.442203935E0
6.753431841E0	-2.792465687E-1	-1.692873478E0	-2.132022381E0	2.736661961E0
6.763329170E0	5.149202347E-1	-2.033940792E0	-2.808283091E0	3.505497384E0
6.773364835E0	1.630927324E-1	-1.841811657E0	-3.531021357E0	3.985847619E0
6.783415667E0	-3.359065056E-1	-1.471145630E0	-5.206556797E0	5.420824322E0
6.793339583E0	-5.738359690E-1	-1.091159344E0	-6.852830410E0	6.962844323E0
6.803325041E0	-6.717370749E-1	-8.663201332E-1	-7.727061272E0	7.804435737E0
6.813323270E0	-1.041495800E-1	-9.460687637E-1	-7.760942459E0	7.819086973E0
6.823310385E0	4.465378523E-1	-1.040659904E0	-6.677929401E0	6.773264367E0
6.833307942E0	4.309399128E-1	-9.988956451E-1	-5.658807755E0	5.762430643E0
6.843257721E0	2.362786531E-1	-1.052567959E0	-4.850620747E0	4.969129555E0
6.853353110E0	4.034042358E-2	-1.192325592E0	-4.299655437E0	4.462096430E0
6.863330805E0	-3.882122040E-2	-1.207783222E0	-4.260879517E0	4.428921049E0
6.873357152E0	-9.254932404E-2	-1.139441967E0	-4.441435337E0	4.586201176E0
6.883324326E0	-1.781114340E-1	-1.120504379E0	-4.677145481E0	4.812789586E0
6.893368913E0	-1.807268858E-1	-1.140908241E0	-4.945067406E0	5.078191161E0
6.903328706E0	-1.444458961E-1	-1.118890285E0	-5.341712952E0	5.459549189E0
6.913301103E0	3.488659859E-3	-1.096410751E0	-5.773680687E0	5.876862886E0
6.923358301E0	2.076395750E-1	-1.091309547E0	-5.952195168E0	6.054973000E0
6.933388900E0	1.813125610E-1	-1.258723736E0	-6.185083389E0	6.314468800E0
6.943378200E0	1.407179832E-1	-1.440151691E0	-6.765419006E0	6.918434272E0
6.953328850E0	2.761266232E-1	-2.055508137E0	-6.819128990E0	7.127543742E0
6.963310675E0	3.297785521E-1	-2.549212456E0	-6.256797791E0	6.764226240E0
6.973296587E0	1.986392736E-1	-2.999768734E0	-5.372667313E0	6.156591920E0
6.983302043E0	-2.124000192E-1	-3.164443493E0	-4.499275208E0	5.504751927E0
6.993340771E0	-9.282913804E-1	-3.708147526E0	-3.540961266E0	5.210613174E0
7.003347635E0	-1.453367949E0	-4.287686348E0	-2.354332685E0	5.102883009E0
7.013294067E0	-1.424578547E0	-4.619670868E0	-1.952253342E0	5.213643263E0
7.023295283E0	-1.309395790E0	-5.465672970E0	-2.071802139E0	5.990030255E0
7.033326891E0	-1.217208385E0	-5.979702950E0	-2.446258068E0	6.574391390E0
7.043332195E0	-1.072339535E0	-6.214307308E0	-2.521180153E0	6.791456159E0
7.053346847E0	-1.250831604E0	-6.296545029E0	-1.613051891E0	6.619138570E0
7.063279673E0	-1.736299992E0	-6.280949593E0	-8.688831329E-2	6.517101735E0
7.073279586E0	-3.059741497E0	-5.102192402E0	2.061958313E0	6.296511528E0
7.083302543E0	-2.490088701E0	-5.136369705E0	4.225741386E0	7.102093054E0
7.093273021E0	-1.158658504E0	-5.131198883E0	6.663381577E0	8.489543306E0
7.103318260E0	-6.518900394E-1	-5.551065445E0	8.496520996E0	1.017006181E1
7.113286880E0	-5.970714688E-1	-5.124278545E0	9.672830582E0	1.096258986E1
7.123283690E0	-5.621820688E-1	-3.794868469E0	9.935331345E0	1.065025278E1
7.133291595E0	-4.717273712E-1	-2.610148907E0	9.287211418E0	9.658555790E0
7.143299547E0	-6.543241739E-1	-1.607896328E0	7.182933807E0	7.389723189E0
7.153284023E0	-1.311980009E0	-1.337342978E0	5.116661072E0	5.448852935E0
7.163255261E0	-1.201003671E0	-1.319665670E0	5.458187103E0	5.742450152E0
7.173259380E0	-3.145872355E-1	-9.856879711E-1	6.575266838E0	6.656176072E0
7.183285440E0	-2.371500731E-1	-4.099681079E-1	5.719804764E0	5.739379805E0
7.193271470E0	-2.521810532E-1	-1.260148585E-1	4.597679138E0	4.606313980E0
7.203298985E0	6.886684895E-2	2.234164178E-1	3.705765724E0	3.713133063E0
7.213306242E0	3.427568674E-1	4.144753516E-1	3.364707947E0	3.407423023E0
7.223385871E0	3.160619736E-1	4.526138306E-1	3.115489960E0	3.164021514E0
7.233388685E0	2.857391238E-1	5.481820703E-1	2.962112427E0	3.025931337E0
7.243318092E0	2.737118006E-1	6.562508941E-1	3.190370560E0	3.268646156E0
7.253310796E0	3.680618405E-1	6.765493155E-1	3.401120186E0	3.487234866E0
7.263287648E0	4.478991330E-1	3.834653497E-1	4.009625435E0	4.052746653E0
7.273290574E0	3.296732306E-1	-9.121333063E-2	5.095440865E0	5.106909233E0
7.283330537E0	-2.891743183E-2	-6.969763041E-1	5.775448799E0	5.817423916E0
7.293332518E0	-2.493978143E-1	-1.295796394E0	6.322650909E0	6.458885514E0
7.303349509E0	-5.988713503E-1	-2.012677670E0	6.410693169E0	6.745850962E0
7.313321004E0	-7.279221416E-1	-2.116836071E0	5.087786674E0	5.558456516E0
7.323303752E0	-5.782268643E-1	-1.806366563E0	2.786972046E0	3.371130322E0
7.333314126E0	-4.865505099E-1	-1.785110354E0	7.932529449E-1	2.013107203E0
7.343320313E0	-1.042736769E-1	-1.561820745E0	-2.543058395E-1	1.585821081E0
7.353333406E0	9.276348352E-2	-1.179201722E0	-1.863670349E-1	1.197436611E0
7.363261453E0	-2.518272400E-1	-1.335539579E0	4.646873474E-1	1.436320736E0
7.373349476E0	-9.010046721E-2	-1.656197071E0	9.415798187E-1	1.907270140E0
7.383324488E0	3.268375397E-1	-1.692141294E0	1.889855385E0	2.557678305E0
7.393310494E0	3.071234226E-1	-1.727711678E0	2.891628265E0	3.382429077E0
7.403283997E0	-1.750122309E-1	-2.413179159E0	1.717441559E0	2.967097646E0
7.413321748E0	-5.292165279E-1	-2.824910641E0	7.603158951E-1	2.972922892E0
7.423314624E0	-6.644351482E-1	-2.248434305E0	-2.293748856E-1	2.355746958E0
7.433276562E0	-9.720307589E-1	-2.057940722E0	-6.612391472E-1	2.370063505E0
7.443244531E0	-8.204616308E-1	-1.740004539E0	-1.039332390E0	2.186546341E0
7.453239515E0	-6.426195502E-1	-1.490874767E0	-2.065832138E0	2.627418863E0
7.463313007E0	-2.116148472E-1	-1.415827751E0	-3.098054886E0	3.412813083E0
7.473307753E0	3.519893885E-1	-1.471236229E0	-3.460386992E0	3.776600416E0
7.483311626E0	6.495531797E-1	-1.610908508E0	-3.679813623E0	4.069149034E0
7.493275563E0	5.773919821E-1	-1.582568169E0	-4.028736115E0	4.366762896E0
7.503280031E0	1.875374317E-1	-1.520801544E0	-4.507683277E0	4.761009993E0
7.513404265E0	-3.433393240E-1	-1.770597935E0	-5.177162170E0	5.482326794E0
7.523330382E0	-6.265467405E-1	-1.739717007E0	-5.875701904E0	6.159792931E0
7.533381441E0	-6.575767994E-1	-1.398553371E0	-6.339110851E0	6.524774721E0
7.543312470E0	-5.920459032E-1	-1.129325867E0	-6.628796577E0	6.750321424E0
7.553449485E0	-5.684052706E-1	-1.214645863E0	-6.923814774E0	7.052493186E0
7.563359992E0	-5.472388268E-1	-1.252814770E0	-7.146571159E0	7.276159325E0
7.573322746E0	-5.112668276E-1	-1.138954639E0	-7.282989025E0	7.389217860E0
7.583313623E0	-4.254502058E-1	-9.991645813E-1	-7.351729393E0	7.431504747E0
7.593438061E0	-3.787238598E-1	-1.042758465E0	-7.388277054E0	7.471105327E0
7.603331780E0	-3.488289118E-1	-1.067223549E0	-7.219205379E0	7.305995759E0
7.613275640E0	-4.351869822E-1	-1.151727200E0	-6.778688908E0	6.889592626E0
7.623240570E0	-9.489291906E-1	-1.450717926E0	-6.264381409E0	6.499809501E0
7.633287535E0	-1.385434985E0	-1.666612148E0	-5.351784229E0	5.773960563E0
7.643291517E0	-1.159388781E0	-1.706152916E0	-4.705235481E0	5.137546209E0
7.653256508E0	-8.808429241E-1	-1.863061428E0	-4.138847828E0	4.623520681E0
7.663325004E0	-6.105250120E-1	-2.297630310E0	-3.533614159E0	4.258905359E0
7.673330752E0	-3.131645918E-1	-2.825590134E0	-2.690476894E0	3.914166269E0
7.683279626E0	-1.127007008E-1	-3.196691513E0	-2.202255726E0	3.883486624E0
7.693263563E0	-2.808674574E-1	-3.530862808E0	-2.263413191E0	4.203441206E0
7.703316031E0	-7.550312877E-1	-3.625994205E0	-2.616174936E0	4.534564755E0
7.713324765E0	-1.229943752E0	-3.990732431E0	-2.501917839E0	4.868089959E0
7.723287632E0	-1.091662407E0	-4.385824203E0	-1.651445389E0	4.811907379E0
7.733275066E0	-9.959477186E-1	-5.152923584E0	5.854606628E-3	5.248291874E0
7.743299783E0	-1.025594234E0	-5.686981201E0	1.595837593E0	5.995022630E0
7.753305641E0	-7.328138351E-1	-5.437241077E0	2.174985886E0	5.901793817E0
7.763321570E0	-5.652913451E-1	-5.380374432E0	2.185359955E0	5.834704916E0
7.773270035E0	-8.916003108E-1	-5.428136349E0	2.607462883E0	6.087567496E0
7.783247267E0	-9.138882756E-1	-5.096650124E0	3.336194992E0	6.159645387E0
7.793246383E0	-7.605774403E-1	-4.374861240E0	4.388603210E0	6.243214481E0
7.803376441E0	-7.531089783E-1	-4.002236843E0	5.199468613E0	6.604509576E0
7.813310970E0	-6.564828753E-1	-3.421145678E0	6.246530533E0	7.152227011E0
7.823314235E0	-7.518762350E-1	-2.602601051E0	7.293148994E0	7.780030357E0
7.833267867E0	-7.911295891E-1	-2.068036079E0	7.793281555E0	8.101721832E0
7.843256683E0	-7.112896442E-1	-1.789065957E0	7.234399796E0	7.486202666E0
7.853325091E0	-2.462433577E-1	-1.652239084E0	5.478755951E0	5.727765407E0
7.863268295E0	2.693889141E-1	-1.223482847E0	4.767431259E0	4.929288131E0
7.873285397E0	3.656249642E-1	-1.178437233E0	4.076300621E0	4.258946194E0
7.883258948E0	2.212516665E-1	-1.109281301E0	3.386366844E0	3.570285382E0
7.893383224E0	-9.103238583E-2	-8.901288509E-1	2.873538971E0	3.009624974E0
7.903317362E0	-4.397611618E-1	-7.042562366E-1	2.515473366E0	2.648956961E0
7.913277431E0	-2.909865379E-1	-5.530962944E-1	2.622369766E0	2.695813767E0
7.923336465E0	8.961558342E-2	-4.437163770E-1	3.025497437E0	3.059174711E0
7.933270482E0	2.662125230E-1	-4.109018743E-1	3.390796661E0	3.425961392E0
7.943303491E0	3.645369411E-1	-3.143423498E-1	3.630110741E0	3.661885072E0
7.953316495E0	3.503482938E-1	-3.372215033E-1	3.480906487E0	3.514707987E0
7.963365997E0	3.345361948E-1	-4.565922022E-1	3.405635834E0	3.452353739E0
7.973353748E0	2.856093645E-1	-6.563184261E-1	3.904629707E0	3.969692650E0
7.983362124E0	3.322400749E-1	-8.328729868E-1	4.929341316E0	5.010236191E0
7.993392312E0	2.810404599E-1	-1.098166108E0	5.425889015E0	5.543033840E0
8.003358906E0	-2.728050053E-1	-1.770626545E0	5.659729004E0	5.936503460E0
8.013329703E0	-9.639228582E-1	-2.746188641E0	5.680714607E0	6.382884753E0
8.023420101E0	-1.042536139E0	-3.118640423E0	5.159805298E0	6.118528451E0
8.033331300E0	-4.121919572E-1	-3.157929897E0	4.654919624E0	5.640097531E0
8.043342900E0	-3.223553002E-1	-3.203454733E0	4.140417099E0	5.244910764E0
8.053370200E0	-6.059844494E-1	-3.263796806E0	3.211692810E0	4.618934666E0
8.063517850E0	-6.660540700E-1	-3.146800756E0	2.204456329E0	3.899437233E0
8.073445675E0	-3.969743550E-1	-2.575930119E0	1.758913040E0	3.144324999E0
8.083404087E0	9.740835428E-2	-2.006519079E0	1.963748932E-1	2.018457406E0
8.093423293E0	-1.159762740E-1	-2.217939377E0	2.930355072E-2	2.221162820E0
8.103406396E0	-6.052219272E-1	-2.438839436E0	-4.792480469E-1	2.558106734E0
8.113404948E0	-8.743665218E-1	-2.622435808E0	-1.098048210E0	2.974457304E0
8.123438224E0	-8.593284488E-1	-3.117170572E0	-2.351430416E0	3.998052371E0
8.133394362E0	-4.898664951E-1	-3.392476797E0	-3.401832581E0	4.829216594E0
8.143361931E0	-5.521939993E-1	-3.328156233E0	-4.056128502E0	5.275767295E0
8.153302215E0	-8.280551434E-1	-2.588000774E0	-4.319471836E0	5.103063812E0
8.163395357E0	-7.423208952E-1	-1.741384506E0	-4.508638859E0	4.889916632E0
8.173340428E0	-4.052436352E-1	-6.609940529E-1	-4.871022224E0	4.932341539E0
8.183298964E0	-5.273605585E-1	-7.609353065E-1	-5.755475521E0	5.829462254E0
8.193440732E0	-1.909033060E-1	-1.152297497E0	-6.387548447E0	6.493458920E0
8.203410616E0	1.752368212E-1	-1.061124325E0	-6.851703644E0	6.935599152E0
8.213487058E0	2.711133957E-1	-8.655695915E-1	-7.395641327E0	7.451055216E0
8.223405779E0	-1.152745485E-1	-8.889322281E-1	-7.578455925E0	7.631283177E0
8.233327639E0	-9.101346135E-1	-1.296817780E0	-7.611259460E0	7.774403639E0
8.243351569E0	-1.480327129E0	-1.550197124E0	-7.493436813E0	7.793976829E0
8.253351534E0	-1.072879314E0	-1.290115833E0	-7.084619045E0	7.280610957E0
8.263600517E0	-2.083175182E-1	-1.017783165E0	-6.630575657E0	6.711468714E0
8.273471008E0	2.545462847E-1	-8.462438583E-1	-5.957786560E0	6.022967971E0
8.283429254E0	1.141653061E-1	-8.245935440E-1	-4.972981930E0	5.042175870E0
8.293385877E0	-1.605976820E-1	-7.874088287E-1	-3.945997000E0	4.026995977E0
8.303374188E0	-1.876177788E-1	-6.823244095E-1	-3.453361034E0	3.525119780E0
8.313362844E0	-5.390157700E-1	-1.572936535E0	-3.029543877E0	3.455836142E0
8.323354672E0	-6.320766211E-1	-1.971455574E0	-2.925461054E0	3.583919686E0
8.333387586E0	-6.150152683E-1	-1.940593243E0	-3.046084881E0	3.663711099E0
8.343359043E0	-6.504561901E-1	-2.172971249E0	-3.230401039E0	3.947200043E0
8.353346271E0	-6.593517661E-1	-2.545766354E0	-3.418067455E0	4.312639123E0
8.363319885E0	-4.088833332E-1	-2.624113083E0	-3.659350395E0	4.521504215E0
8.373392692E0	-3.860753775E-1	-2.817492008E0	-3.384315252E0	4.420509602E0
8.383320096E0	-8.418862820E-1	-3.045714855E0	-3.196310043E0	4.494613374E0
8.393283298E0	-1.136255503E0	-3.618622780E0	-2.665567636E0	4.635812573E0
8.403270899E0	-7.852826715E-1	-4.170489311E0	-9.564251900E-1	4.350218283E0
8.413383699E0	2.166187763E-2	-4.912381649E0	7.265548706E-1	4.965867969E0
8.423805099E0	7.389152050E-2	-5.937131882E0	2.125144005E0	6.306443687E0
8.433531299E0	-5.185806751E-2	-5.671254158E0	3.063357353E0	6.445926718E0
8.443443399E0	-4.102720618E-1	-5.314689159E0	2.656967163E0	5.955981744E0
8.453327949E0	-7.640510798E-1	-4.549434185E0	3.638535500E0	5.875377949E0
8.463360224E0	-1.039392114E0	-3.843820572E0	5.250208855E0	6.589384309E0
8.473379862E0	-8.230352402E-1	-3.303847551E0	6.336506844E0	7.193338212E0
8.483331181E0	-3.273418546E-1	-2.762059689E0	6.895442009E0	7.435270467E0
8.493584840E0	-4.492539167E-2	-2.257587433E0	7.155792236E0	7.503604590E0
8.503421170E0	1.146832854E-1	-2.173814535E0	7.058012962E0	7.386079397E0
8.513392335E0	7.639203966E-2	-2.158306599E0	6.809511185E0	7.143778110E0
8.523316917E0	2.515548468E-1	-1.747270226E0	6.346801758E0	6.587725377E0
8.533284208E0	3.203500807E-1	-1.329361677E0	5.292874336E0	5.466657606E0
8.543251354E0	1.695306152E-1	-1.285843253E0	2.840397835E0	3.122497936E0
8.553233927E0	2.784051299E-1	-1.103022814E0	2.244685173E0	2.516501594E0
8.563254713E0	1.627150178E-1	-9.135749936E-1	2.139465332E0	2.332039312E0
8.573223106E0	1.545151919E-1	-7.573448420E-1	2.317140579E0	2.442659743E0
8.583222803E0	1.904394627E-1	-5.952359438E-1	2.452541351E0	2.530915269E0
8.593262651E0	2.281944752E-1	-4.922380447E-1	2.488841057E0	2.547292841E0
8.603276075E0	1.769345850E-1	-5.489953756E-1	2.686625481E0	2.747846110E0
8.613291787E0	3.740365803E-1	-5.407501459E-1	3.141226768E0	3.209302057E0
8.623306143E0	4.954276979E-1	-6.188797951E-1	3.899148941E0	3.978922375E0
8.633301821E0	1.388620138E-1	-1.003765106E0	4.158554077E0	4.280233529E0
8.643250160E0	-7.908776402E-3	-1.294131875E0	4.428390503E0	4.613619220E0
8.653277830E0	1.939877570E-1	-1.137360334E0	4.726366043E0	4.865157321E0
8.663248665E0	1.519139409E-1	-1.161968112E0	4.647129059E0	4.792604326E0
8.673237082E0	3.237526119E-1	-1.357488751E0	4.683898926E0	4.887381775E0
8.683247791E0	4.662138224E-1	-1.448828578E0	4.792255402E0	5.028137967E0
8.693224645E0	2.322189808E-1	-1.704443336E0	5.142224312E0	5.422317181E0
8.703238572E0	-2.370113134E-1	-2.294924259E0	4.828489304E0	5.351369981E0
8.713235536E0	-3.613849282E-1	-2.705913067E0	4.662059784E0	5.402533297E0
8.723223518E0	-3.189202547E-1	-2.878492355E0	5.287481308E0	6.028672072E0
8.733207509E0	-7.062137127E-2	-3.041842937E0	5.110506058E0	5.947694343E0
8.743222004E0	-3.431363106E-1	-3.318354130E0	4.587645531E0	5.672363544E0
8.753261752E0	-7.552642822E-1	-3.580437660E0	3.547874451E0	5.096800084E0
8.763260126E0	-1.257376432E0	-3.774919987E0	-1.516365528E0	4.257978489E0
8.773231813E0	-1.540129900E0	-2.864205599E0	-2.915171623E0	4.367367561E0
8.783242156E0	-1.194192529E0	-2.545306683E0	-3.361780167E0	4.382493331E0
8.793230828E0	-1.194218040E0	-2.103404999E0	-3.527283430E0	4.276937890E0
8.803265164E0	-1.000338793E0	-1.428894043E0	-3.626526594E0	4.024190729E0
8.813284832E0	-4.081728458E-1	-8.160061836E-1	-3.652999163E0	3.765218990E0
8.823294166E0	2.122812271E-1	-6.762223244E-1	-4.128607273E0	4.189002025E0
8.833259333E0	3.809230328E-1	-1.514670372E0	-5.230517864E0	5.458721995E0
8.843238916E0	-1.682162285E-2	-2.687810421E0	-6.051860809E0	6.621905095E0
8.853267708E0	-5.710952282E-1	-3.237960815E0	-6.750774384E0	7.508894378E0
8.863301604E0	-1.110136032E0	-3.024377823E0	-7.485619545E0	8.149463982E0
8.873277552E0	-1.008481145E0	-1.941818714E0	-8.039820671E0	8.332251230E0
8.883393026E0	-6.362247467E-1	-8.261451721E-1	-8.064074516E0	8.131211200E0
8.893298263E0	-4.891860485E-1	-4.082269669E-1	-7.582680225E0	7.609401530E0
8.903286381E0	-4.622423649E-1	-4.151544571E-1	-7.024487495E0	7.051910791E0
8.913253440E0	-5.135071278E-1	-6.786804199E-1	-6.439193726E0	6.495191492E0
8.923259970E0	-5.033884048E-1	-1.016704559E0	-5.658782482E0	5.771386941E0
8.933244235E0	-3.430447578E-1	-9.758615494E-1	-4.477770805E0	4.595695470E0
8.943278367E0	-1.702768803E-1	-8.049907684E-1	-3.437158585E0	3.534269866E0
8.953242933E0	-2.251267433E-1	-7.399587631E-1	-2.478431463E0	2.596313452E0
8.963284216E0	-2.827744484E-1	-7.543725967E-1	-1.689588308E0	1.871830135E0
8.973324358E0	-4.211938381E-1	-1.056559563E0	-1.356888771E0	1.770556267E0
8.983373929E0	-6.566319466E-1	-1.477368832E0	-1.794586301E0	2.415434571E0
8.993346714E0	-2.283737659E-1	-1.378652096E0	-3.713176250E0	3.967431669E0
9.003335607E0	-3.868293762E-2	-1.498599529E0	-4.652217388E0	4.887783091E0
9.013344053E0	-1.182923317E-1	-1.965288639E0	-5.319337368E0	5.672010450E0
9.023325276E0	-1.396615505E-1	-2.273540020E0	-5.270927906E0	5.742052818E0
9.033330388E0	-3.780674934E-1	-2.392316341E0	-4.819623947E0	5.393967695E0
9.043287944E0	-8.243067265E-1	-2.751141071E0	-3.981585741E0	4.909305836E0
9.053372722E0	-1.423079371E0	-2.797026634E0	-2.324975014E0	3.905639730E0
9.063369611E0	-2.504437447E0	-3.054616451E0	-6.513266563E-1	4.003387940E0
9.073292055E0	-3.157409191E0	-3.901114941E0	-4.250688553E-1	5.036726527E0
9.083299277E0	-2.489550352E0	-5.195950508E0	-3.051717997E0	6.519873110E0
9.093324388E0	-1.477754116E0	-6.832325935E0	-2.884787560E0	7.562171261E0
9.103291944E0	-7.422313094E-1	-6.936240673E0	2.264460564E0	7.334175048E0
9.113306722E0	-7.494997978E-2	-6.644625187E0	5.233849049E0	8.458713687E0
9.123352611E0	2.111911774E-2	-6.541749001E0	5.128722191E0	8.312563823E0
9.133331055E0	1.294090748E-1	-5.470807552E0	5.980596542E0	8.106418259E0
9.143307277E0	-9.698599577E-1	-3.590105057E0	7.541561127E0	8.408604336E0
9.153357388E0	-1.452460289E0	-2.235820770E0	7.940670967E0	8.376323228E0
9.163374944E0	-1.360117316E0	-1.649887443E0	7.533812523E0	7.831371452E0
9.173290722E0	-3.746336699E-1	-2.201604366E0	6.257887840E0	6.644439208E0
9.183386111E0	-8.341264725E-2	-2.248169899E0	5.064315796E0	5.541526869E0
9.193311805E0	-1.799350977E-2	-2.117422104E0	4.163544655E0	4.671070993E0
9.203467652E0	3.775839806E-1	-2.068595171E0	3.850577354E0	4.387322829E0
9.213395576E0	9.711012244E-1	-1.881954074E0	4.058977127E0	4.578218435E0
9.223303538E0	4.734631777E-1	-9.858021140E-1	3.939687729E0	4.088656575E0
9.233328019E0	-2.262015045E-1	-6.639193892E-1	3.276650429E0	3.350879602E0
9.243267759E0	-7.528685331E-1	-8.551217914E-1	2.251110077E0	2.523002355E0
9.253273129E0	1.080311537E-1	-1.156899929E0	1.507315636E0	1.903178552E0
9.263729314E0	6.998664141E-1	-8.106181622E-1	1.383311272E0	1.749418440E0
9.273530907E0	-8.403857350E-1	-8.160911202E-1	1.425941467E0	1.845416476E0
9.283452203E0	6.650989056E-1	-9.783028364E-1	1.031469345E0	1.569510116E0
9.293377351E0	-3.060302138E-2	-4.115368724E-1	1.456590652E0	1.513920563E0
9.303302925E0	-1.124138832E-1	-9.705645442E-1	1.643255234E0	1.911784553E0
9.313314212E0	4.256309867E-1	-1.084098816E-1	2.077331543E0	2.123257116E0
9.323298856E0	-1.248582900E-1	-9.724156260E-1	2.013257980E0	2.239283242E0
9.333336178E0	-1.546576023E-1	-2.290424109E-1	2.061992645E0	2.080430982E0
9.343267339E0	6.649335623E-1	-8.661626577E-1	1.545582771E0	1.892406007E0
9.353288919E0	-1.009829521E0	-7.608669996E-1	1.747991562E0	2.157347620E0
9.363350709E0	1.219092369E0	-6.925779581E-1	2.063367844E0	2.494661759E0
9.373310104E0	-1.439076960E-1	-1.392372489E0	2.767043114E0	3.100957621E0
9.383295302E0	-3.014603257E-1	-9.770377874E-1	3.925447464E0	4.056429336E0
9.393318401E0	1.354771495E0	-1.131955862E0	4.104271889E0	4.467860519E0
9.403377950E0	9.114384651E-2	-1.530811548E0	4.199270248E0	4.470521426E0
9.413370725E0	-7.485653758E-1	-8.793990612E-1	4.424965858E0	4.573184413E0
9.423404612E0	1.018258572E0	-1.106910467E0	3.839932442E0	4.123976535E0
9.434732056E0	1.371043682E0	-1.706830740E0	5.434561729E0	5.858966901E0
9.444029278E0	1.309696436E0	-2.039851665E0	6.500243187E0	6.937539986E0
9.453976889E0	-6.684470177E-1	-2.249445677E0	6.624967575E0	7.028301547E0
9.463917694E0	-1.064110994E0	-3.229581356E0	5.256015778E0	6.260050303E0
9.473638597E0	-1.204958916E0	-3.727237463E0	3.289491653E0	5.115171594E0
9.483430048E0	-8.143068552E-1	-3.494725704E0	1.280017853E0	3.809809589E0
9.493317274E0	-6.918697357E-1	-3.276079416E0	-1.377032280E0	3.620441682E0
9.503320887E0	-1.228604317E0	-3.278038025E0	-3.169958591E0	4.722672901E0
9.513355693E0	-1.238002539E0	-2.961236238E0	-3.842296124E0	5.006476790E0
9.523280596E0	-9.705580473E-1	-2.285090208E0	-3.955922127E0	4.670432534E0
9.533344048E0	-1.269273758E0	-1.363879204E0	-3.889358282E0	4.312578139E0
9.543269274E0	-6.219645739E-1	-3.633713722E-1	-3.697840214E0	3.767346670E0
9.553256887E0	3.975667953E-1	-2.529911995E-1	-3.978882313E0	4.006690450E0
9.563250193E0	-2.027460337E-1	-8.635849953E-1	-4.724911690E0	4.807460398E0
9.573270846E0	5.627765656E-1	-8.341007233E-1	-4.413866520E0	4.527102731E0
9.583322173E0	6.792008877E-1	-1.039807320E0	-4.406572819E0	4.578252627E0
9.593315836E0	5.870437622E-1	-1.041100502E0	-4.023826122E0	4.197581124E0
9.603304668E0	-2.314876318E-1	-1.414123535E0	-4.096455097E0	4.339847493E0
9.613334584E0	-3.512822390E-1	-1.349496841E0	-4.254154682E0	4.476870893E0
9.623324542E0	-1.258212924E0	-1.245079041E0	-4.656384468E0	4.981489526E0
9.633323021E0	-9.023134708E-1	-7.260088921E-1	-4.475950241E0	4.623352579E0
9.643299760E0	-6.579526663E-1	-7.438168526E-1	-4.416401386E0	4.526672777E0
9.653364630E0	-6.484569311E-1	-4.450540543E-1	-4.519326687E0	4.587252250E0
9.663298065E0	-3.013092279E-1	-1.607799530E-1	-4.535071850E0	4.547913162E0
9.673296782E0	-7.833266258E-2	-4.325141907E-1	-4.228302956E0	4.251088145E0
9.683299141E0	2.020102739E-1	-5.127696991E-1	-3.798366070E0	3.838140919E0
9.693327820E0	1.641595364E-1	-3.835458755E-1	-3.185770035E0	3.212971601E0
9.703268160E0	-7.493041754E-1	-3.988323212E-1	-2.392928123E0	2.539021263E0
9.713315330E0	-1.134255171E0	-7.242903709E-1	-1.917362452E0	2.342522167E0
9.723317915E0	5.652821064E-2	-7.345118523E-1	-1.666465282E0	1.822034478E0
9.733276707E0	-7.391171455E-1	-4.521951675E-1	-1.223702431E0	1.499407304E0
9.743313603E0	-1.280833721E0	-1.024957657E0	-1.402752399E0	2.158422460E0
9.753335551E0	7.232540846E-1	-4.082422256E-1	-2.027402163E0	2.190917094E0
9.763326025E0	-1.090778589E0	-7.844576836E-1	-2.481269121E0	2.821678267E0
9.773405762E0	1.165719271E0	-6.879863739E-1	-3.600551128E0	3.846582262E0
9.783351131E0	-1.010509014E0	-1.481203556E0	-3.976362228E0	4.361943261E0
9.793524315E0	9.636539221E-1	-1.256030083E0	-4.181549549E0	4.471196381E0
9.803426907E0	-3.356213570E-1	-2.312583923E0	-3.907844067E0	4.553233065E0
9.813417203E0	-6.261394024E-1	-2.126836300E0	-3.554918528E0	4.189621574E0
9.823421851E0	3.406535387E-1	-2.731577396E0	-3.627719641E0	4.553889513E0
9.833385675E0	-1.978407860E0	-3.381048679E0	-2.411511898E0	4.600106245E0
9.843467087E0	-1.588046789E0	-2.892303467E0	-4.334397316E-1	3.327939595E0
9.853411293E0	1.887152195E-1	-3.342308760E0	1.527794838E0	3.679782378E0
9.863410896E0	-5.387428403E-1	-3.972335815E0	2.914153576E0	4.956005119E0
9.873330698E0	-1.118149281E0	-3.685963869E0	3.122160912E0	4.958273512E0
9.883301599E0	1.547849178E-2	-3.330498695E0	2.332192421E0	4.065904897E0
9.893345549E0	9.804290533E-1	-3.057390690E0	1.439125061E0	3.518516719E0
9.903430524E0	-1.628454685E0	-3.460448742E0	2.656144142E0	4.656358219E0
9.913401012E0	-7.593098283E-1	-2.414629698E0	4.400168419E0	5.076265370E0
9.923355256E0	1.501311064E-1	-2.328065395E0	5.547183037E0	6.017779281E0
9.933293378E0	-7.317199707E-1	-1.478177786E0	6.234811783E0	6.449286910E0
9.943368939E0	5.326503515E-1	-2.233686924E0	5.433544159E0	5.898853770E0
9.953381219E0	8.210303187E-1	-1.902551413E0	4.489268303E0	4.944423380E0
9.963326859E0	-2.288396955E-1	-1.917607903E0	3.413468361E0	3.921906925E0
9.973326179E0	3.750818968E-2	-1.793276072E0	2.708663940E0	3.248708401E0
9.983297839E0	3.772087693E-1	-1.376815438E0	2.498043060E0	2.877173324E0
9.993389669E0	2.460222244E-1	-1.039022088E0	2.397487640E0	2.624507729E0
1.000335908E1	4.119515419E-2	-9.720262289E-1	2.228384018E0	2.431507220E0
1.001335779E1	2.158290148E-2	-9.330545664E-1	2.033631325E0	2.237568549E0
1.002338965E1	2.130100131E-1	-6.493821144E-1	1.811566353E0	1.936192926E0
1.003335307E1	2.830528617E-1	-8.039654493E-1	1.392568588E0	1.632705313E0
1.004341529E1	-1.284363866E-2	-1.044085264E0	1.050877571E0	1.481425890E0
1.005331189E1	-3.828216791E-1	-8.626198769E-1	1.033404350E0	1.399496353E0
1.006333820E1	2.686050534E-1	-6.266559362E-1	1.111323357E0	1.303796740E0
1.007326435E1	2.709588706E-1	-7.507842779E-1	8.781795502E-1	1.186716084E0
1.008325392E1	-2.810762525E-1	-5.483230352E-1	9.555959702E-1	1.137024920E0
1.009326171E1	2.447836697E-1	-7.145073414E-1	8.062362671E-1	1.104742823E0
1.010329511E1	-4.119633138E-1	-4.998309612E-1	5.990543365E-1	8.822759545E-1
1.011339130E1	2.746604979E-1	-6.204876900E-1	5.491466522E-1	8.729292114E-1
1.012332790E1	-1.320171356E-1	-4.724758863E-1	6.410236359E-1	8.072008976E-1
1.013333870E1	1.746962368E-1	-5.876961946E-1	3.693294525E-1	7.157582251E-1
1.014337010E1	-1.300199032E-1	-5.589522123E-1	1.658344269E-2	5.741147633E-1
1.015337130E1	-5.373686552E-3	-7.393443584E-1	-1.939258575E-1	7.643730732E-1
1.016338940E1	1.818776429E-1	-6.610037088E-1	-1.089859009E-1	6.941781520E-1
1.017335545E1	3.394645452E-2	-6.202253103E-1	-6.957435608E-2	6.250379095E-1
1.018334998E1	-4.220226407E-2	-6.298851967E-1	4.344940186E-3	6.313123400E-1
1.019334274E1	6.431302428E-2	-6.154491901E-1	1.021986008E-1	6.271829276E-1
1.020335162E1	1.251363754E-1	-6.331130266E-1	2.314376831E-1	6.856052932E-1
1.021335656E1	1.205865741E-1	-6.350091696E-1	2.808036804E-1	7.047187199E-1
1.022334603E1	-4.225295782E-2	-6.860936880E-1	1.065864563E-1	6.956080318E-1
1.023336726E1	-1.576913893E-1	-6.770497561E-1	-1.759586334E-1	7.170944060E-1
1.024334588E1	-1.305160820E-1	-6.317402124E-1	-3.087263107E-1	7.151517871E-1
1.025334169E1	-3.308320045E-2	-6.104915142E-1	-2.571210861E-1	6.632538277E-1
1.026330210E1	4.876530170E-2	-5.633691549E-1	-1.005020142E-1	5.743374568E-1
1.027332880E1	8.151853085E-2	-5.096311569E-1	1.288423538E-1	5.319488125E-1
1.028334715E1	3.025266528E-2	-4.571321011E-1	2.717885971E-1	5.326856701E-1
1.029344882E1	-2.206081152E-2	-4.322410822E-1	2.078638077E-1	4.801316435E-1
1.030344616E1	-3.406202793E-2	-4.305574894E-1	8.939838409E-2	4.410578698E-1
1.031344983E1	-1.357674599E-3	-3.959182501E-1	6.248474121E-3	3.959698820E-1
1.032342517E1	-4.374474287E-3	-4.100872278E-1	-4.980373383E-2	4.131235679E-1
1.033333883E1	-1.289805770E-2	-4.320355654E-1	-1.030492783E-1	4.443424843E-1
1.034330467E1	2.678844333E-2	-3.912973404E-1	-8.782482147E-2	4.019258993E-1
1.035333158E1	9.759864211E-2	-2.568337917E-1	2.029447556E-1	3.415781980E-1
1.036342404E1	-4.669234157E-2	-3.287899494E-1	1.719837189E-1	3.739804877E-1
1.037339377E1	-2.219492197E-2	-3.025109768E-1	4.800033569E-2	3.070985800E-1
1.038341164E1	-2.274289727E-2	-3.223401308E-1	6.616592407E-3	3.232091871E-1
1.039339907E1	3.337839246E-2	-3.485804796E-1	-2.518939972E-2	3.510797256E-1
1.040333728E1	1.556867361E-2	-3.795272112E-1	-6.540012360E-2	3.854354210E-1
1.041329539E1	-2.816432714E-2	-3.834497929E-1	-1.497802734E-1	4.126270753E-1
1.042332145E1	-1.373085380E-2	-3.378623724E-1	-9.774017334E-2	3.519838924E-1
1.043333947E1	-3.333088756E-2	-3.631359339E-1	1.974296570E-2	3.651964392E-1
1.044331249E1	-6.125739217E-2	-3.311060667E-1	1.475181580E-1	3.676211398E-1
1.045345949E1	-1.105576754E-2	-2.533386946E-1	1.985778809E-1	3.220805783E-1
1.046337050E1	2.443379164E-2	-2.668040991E-1	1.565313339E-1	3.102958201E-1
1.047329850E1	2.744278312E-2	-2.532831430E-1	6.955051422E-2	2.640884907E-1
1.048324350E1	-3.099948168E-3	-3.246124983E-1	2.010917664E-2	3.252495391E-1
1.049329700E1	4.934233427E-2	-2.897498608E-1	8.204174042E-2	3.051565089E-1
1.050327725E1	6.891229749E-2	-1.859461069E-1	1.464242935E-1	2.465054424E-1
1.051328587E1	1.500475407E-2	-2.079355717E-1	3.262233734E-2	2.110131785E-1
1.052326919E1	2.403119206E-2	-2.167716026E-1	-7.142639160E-2	2.294976151E-1
1.053323634E1	1.876056194E-2	-2.102110386E-1	-1.033744812E-1	2.350040910E-1
1.054325042E1	3.728854656E-2	-1.928929090E-1	-8.837318420E-2	2.154249980E-1
1.055323896E1	3.918662667E-2	-1.825147867E-1	-4.089546204E-2	1.911012242E-1
1.056324873E1	6.643763185E-2	-1.386463642E-1	-5.810832977E-2	1.643573887E-1
1.057327112E1	-4.715383053E-3	-1.330631971E-1	-7.630729675E-2	1.534628711E-1
1.058327181E1	2.341017127E-2	-1.487476826E-1	-1.110048294E-1	1.870721287E-1
1.059325965E1	3.526002169E-3	-1.916961670E-1	-9.660816193E-2	2.146927807E-1
1.060322458E1	9.027123451E-5	-2.022817135E-1	4.729270935E-3	2.023370104E-1
1.061328954E1	2.390518785E-2	-1.433789730E-1	9.119701385E-2	1.715980281E-1
1.062325452E1	1.825925708E-2	-1.395927668E-1	7.924175262E-2	1.615512190E-1
1.063326651E1	1.571384072E-2	-1.573615074E-1	4.451560974E-2	1.642900128E-1
1.064324400E1	-2.200281620E-2	-1.627268791E-1	-6.667232513E-2	1.772268604E-1
1.065327625E1	-7.777839899E-3	-1.337319613E-1	-2.493896484E-1	2.830899663E-1
1.066327988E1	-1.449167728E-3	-1.669510603E-1	-3.266925812E-1	3.668825414E-1
1.067332019E1	4.101407528E-2	-1.817648411E-1	-2.713165283E-1	3.291401986E-1
1.068327134E1	6.241759658E-2	-1.738520861E-1	-1.075954437E-1	2.137692300E-1
1.069325842E1	3.797355294E-2	-1.205929518E-1	4.352951050E-2	1.337141317E-1
1.070325296E1	1.516088843E-2	-1.016731262E-1	5.905246735E-2	1.185515543E-1
1.071323723E1	8.740782738E-3	-1.026457548E-1	7.228088379E-2	1.258454545E-1
1.072325036E1	2.696231008E-2	-1.706084013E-1	1.230888367E-1	2.120968045E-1
1.073329143E1	3.158515692E-2	-1.798758507E-1	7.500076294E-2	1.974286155E-1
1.074327597E1	-8.853971958E-3	-1.563186646E-1	-1.827144623E-2	1.576317337E-1
1.075334023E1	-8.675247431E-3	-1.683554649E-1	-1.078462601E-1	2.001240573E-1
1.076329637E1	-2.215653658E-3	-1.540135145E-1	-1.244621277E-1	1.980300306E-1
1.077336293E1	3.616231680E-2	-1.003032923E-1	-8.287906647E-2	1.350459302E-1
1.078333322E1	3.960347176E-2	-6.221985817E-2	-4.362583160E-2	8.569106668E-2
1.079329336E1	4.123690724E-2	-4.775524139E-2	-6.640338898E-2	9.159943050E-2
1.080351793E1	1.775023341E-2	-8.534669876E-2	-1.046009064E-1	1.361634290E-1
1.081346071E1	5.177897215E-2	-9.181320667E-2	-1.690912247E-1	1.992550354E-1
1.082335911E1	3.702989221E-2	-1.021455526E-1	-1.044187546E-1	1.506924124E-1
1.083338830E1	-8.568316698E-3	-1.457355022E-1	-3.760814667E-2	1.507535252E-1
1.084343940E1	-1.491713524E-2	-1.144059896E-1	8.697509766E-3	1.157017635E-1
1.085341395E1	-1.714339852E-2	-7.248449326E-2	2.025222778E-2	7.718840979E-2
1.086340272E1	-2.830970287E-2	-6.603968143E-2	-1.653671265E-3	7.187081069E-2
1.087335961E1	-1.377525926E-2	-6.684505939E-2	-3.054809570E-2	7.477436649E-2
1.088330606E1	3.731667995E-3	-8.556783199E-2	-6.760120392E-2	1.091132530E-1
1.089329778E1	-2.045869827E-3	-8.218884468E-2	-7.220363617E-2	1.094191795E-1
1.090334164E1	-2.020120621E-2	-1.041210890E-1	-4.444122314E-2	1.149970096E-1
1.091333657E1	-7.722824812E-3	-1.030143499E-1	3.955554962E-2	1.106175385E-1
1.092335603E1	3.158771992E-2	-1.062290668E-1	6.244754791E-2	1.272088634E-1
1.093332477E1	2.267301083E-2	-1.201517582E-1	7.529258728E-3	1.225038781E-1
1.094328613E1	-5.165040493E-4	-1.348817348E-1	-4.626083374E-2	1.425952801E-1
1.095329882E1	-7.931590080E-3	-1.139060259E-1	-4.157066345E-2	1.215138384E-1
1.096328166E1	-3.142863512E-3	-9.678637981E-2	-5.380630493E-2	1.107817646E-1
1.097327008E1	1.148894429E-2	-8.031618595E-2	-1.347160339E-2	8.224457225E-2
1.098329529E1	2.600714564E-2	-4.693901539E-2	-6.904602051E-4	5.366674506E-2
1.099326639E1	2.207982540E-2	-2.607679367E-2	-1.174163818E-2	3.613009722E-2
1.100324095E1	3.069272637E-2	-6.551027298E-2	-2.967262268E-2	7.819273531E-2
1.101327922E1	5.148530006E-3	-7.198131084E-2	-4.150199890E-2	8.324801730E-2
1.102328236E1	-1.247194409E-2	-6.444752216E-2	-1.374721527E-2	6.706726795E-2
1.103330143E1	1.190567017E-2	-8.107113838E-2	-2.546405792E-2	8.580613443E-2
1.104329347E1	7.152557373E-4	-9.149336815E-2	5.614376068E-2	1.073483576E-1
1.105333498E1	1.355156302E-2	-6.444072723E-2	8.736324310E-2	1.094010440E-1
1.106328524E1	6.607174873E-3	-6.276750565E-2	5.630493164E-2	8.457931102E-2
1.107328937E1	2.311685681E-2	-8.245646954E-2	1.940822601E-2	8.780738963E-2
1.108329294E1	2.952209115E-2	-9.504628181E-2	-1.246356964E-2	1.003029916E-1
1.109330972E1	4.898434877E-2	-8.372581005E-2	-7.759380341E-2	1.242186621E-1
1.110330861E1	1.697599888E-3	-7.288098335E-2	-1.426067352E-1	1.601599217E-1
1.111328755E1	-6.836920977E-3	-4.994225502E-2	-1.681032181E-1	1.754983312E-1
1.112326703E1	-3.879055381E-2	-8.116233349E-2	-1.338748932E-1	1.612901685E-1
1.113326226E1	4.107087851E-3	-9.541070461E-2	-2.923488617E-2	9.987366667E-2
1.114324788E1	1.043746173E-1	-5.540776253E-2	7.393932343E-2	1.393954965E-1
1.115326619E1	8.770287037E-2	-4.590928555E-2	5.249500275E-2	1.120499053E-1
1.116326585E1	1.337689161E-2	-6.218922138E-2	-8.260250092E-2	1.042574393E-1
1.117333867E1	9.234845638E-4	-7.573223114E-2	-1.708984375E-1	1.869291299E-1
1.118334059E1	2.650344372E-2	-6.867802143E-2	-2.173271179E-1	2.294562689E-1
1.119332104E1	2.356770635E-2	-8.371305466E-2	-2.051715851E-1	2.228423022E-1
1.120334477E1	3.046238422E-2	-6.798577309E-2	-1.751661301E-1	1.903501913E-1
1.121335114E1	6.098297238E-2	-7.162904739E-2	-1.225709915E-1	1.545098421E-1
1.122334382E1	7.050642371E-2	-8.369517326E-2	-8.096981049E-2	1.361328323E-1
1.123338066E1	6.724163890E-2	-6.677639484E-2	-4.327297211E-2	1.041780928E-1
1.124333358E1	3.036752343E-2	-6.410193443E-2	-5.113029480E-2	8.743884448E-2
1.125337454E1	-1.695853472E-2	-1.515781879E-2	-7.452011108E-3	2.393499196E-2
1.126337752E1	4.968446493E-2	1.647293568E-2	-5.107593536E-2	7.313449828E-2
1.127339551E1	3.878244758E-2	-7.678866386E-2	-1.544971466E-1	1.768331005E-1
1.128338950E1	6.063178182E-2	-1.140880585E-1	-2.410755157E-1	2.735136237E-1
1.129331500E1	6.702187657E-2	-8.219468594E-2	-1.805305481E-1	2.093780722E-1
1.130332075E1	7.683593035E-2	-5.698192120E-2	-6.874084473E-2	1.177964485E-1
1.131327913E1	6.765747070E-2	-4.949176311E-2	5.601978302E-2	1.008225374E-1
1.132332381E1	8.464637399E-2	-5.454421043E-2	4.661273956E-2	1.109631786E-1
1.133335766E1	5.555403233E-2	-2.321803570E-2	-4.589080811E-3	6.038532398E-2
1.134337008E1	2.604350448E-2	-5.633068085E-2	-5.560302734E-2	8.332530456E-2
1.135333779E1	6.365135312E-2	-6.064176559E-2	-9.924697876E-2	1.325853736E-1
1.136336064E1	7.176464796E-2	-4.721510410E-2	-1.201257706E-1	1.476808434E-1
1.137333907E1	6.023293734E-2	-3.546333313E-2	-1.782608032E-1	1.914747208E-1
1.138330629E1	2.020904422E-2	-1.200640202E-2	-2.521705627E-1	2.532637990E-1
1.139335639E1	-2.587825060E-3	-1.055991650E-2	-2.807283401E-1	2.809388005E-1
1.140334695E1	-5.842059851E-3	-1.200616360E-2	-2.711057663E-1	2.714343643E-1
1.141338572E1	-1.446735859E-2	-2.548599243E-2	-2.449283600E-1	2.466753774E-1
1.142336411E1	-1.796633005E-2	-3.017663956E-2	-1.948833466E-1	1.980225678E-1
1.143336730E1	-2.839002013E-2	-1.815485954E-2	-1.268777847E-1	1.312766713E-1
1.144338940E1	-2.246373892E-2	1.163089275E-2	-1.354217529E-3	2.533241279E-2
1.145342995E1	3.369665146E-2	2.236759663E-2	1.004610062E-1	1.082967565E-1
1.146342222E1	2.246281505E-2	-1.396000385E-2	1.680688858E-1	1.701370334E-1
1.147343236E1	-9.388625622E-4	-4.922950268E-2	2.789964676E-1	2.833080555E-1
1.148339543E1	-4.586237669E-2	-4.844677448E-2	5.566778183E-1	5.606608966E-1
1.149337497E1	4.825073481E-2	1.263260841E-3	1.840700150E0	1.841332879E0
1.150336623E1	2.006745338E-1	-2.878940105E-2	2.287222862E0	2.296189783E0
1.151336387E1	3.193019927E-1	-2.629625797E-2	2.267117500E0	2.289643425E0
1.152342618E1	1.276428103E-1	-1.739286184E-1	1.799264908E0	1.812152880E0
1.153338834E1	-2.166850418E-1	-4.931838512E-1	1.117523193E0	1.240580834E0
1.154333442E1	-6.118433475E-1	-6.425490379E-1	1.199811935E0	1.492236653E0
1.155339096E1	-9.864348173E-2	-1.375659704E-1	1.720737457E0	1.729043762E0
1.156348323E1	1.580202878E-1	3.018140793E-3	2.886624336E0	2.890947869E0
1.157345537E1	1.860900819E-1	9.447765350E-2	4.144169807E0	4.149421519E0
1.158336893E1	-3.279423714E-2	-3.215861320E-2	4.532933235E0	4.533165930E0
1.159338022E1	-2.030197978E-1	-3.068699837E-1	4.701265335E0	4.715642265E0
1.160331186E1	-1.548272371E-1	-8.585355282E-1	4.589690208E0	4.671863754E0
1.161333318E1	-3.302133083E-2	-1.320382953E0	4.486642838E0	4.677014593E0
1.162344334E1	1.167353988E-2	-1.520306826E0	4.198981285E0	4.465748868E0
1.163335042E1	-1.451525986E-1	-1.847083092E0	3.006854057E0	3.531848885E0
1.164335046E1	-3.655903041E-1	-1.651428223E0	1.185305595E0	2.065386356E0
1.165340048E1	-3.534565866E-1	-1.140831947E0	4.500274658E-1	1.276304748E0
1.166346749E1	-5.415751934E-1	-1.016020536E0	-9.727668762E-2	1.155449772E0
1.167338949E1	-3.724765182E-1	-8.590989113E-1	-1.091477394E0	1.438093390E0
1.168338950E1	2.826086283E-1	-8.018608093E-1	-1.585791111E0	1.799328164E0
1.169344750E1	8.266473413E-1	-8.109784126E-1	-1.430442333E0	1.840433938E0
1.170339050E1	7.160241008E-1	-8.238849640E-1	-1.164551258E0	1.596138020E0
1.171338400E1	1.357416511E-1	-9.753541946E-1	-5.832586288E-1	1.144522708E0
1.172343475E1	-1.078095794E0	-1.234321117E0	-1.106820107E-1	1.642586274E0
1.173346762E1	-9.318519831E-1	-1.436917305E0	-8.670353889E-1	1.919591057E0
1.174342706E1	-2.618718743E-1	-1.565687180E0	-9.473810196E-1	1.848643832E0
1.175343828E1	1.108105779E-1	-1.536907673E0	-1.577414513E0	2.205130546E0
1.176340239E1	2.479587793E-1	-1.132801533E0	-2.523098469E0	2.776823500E0
1.177341644E1	2.771641612E-1	-8.515582085E-1	-3.753360987E0	3.858716114E0
1.178342697E1	4.582695961E-1	-5.104861259E-1	-4.062905788E0	4.120413881E0
1.179341524E1	6.474291682E-1	-1.929812431E-1	-4.192462921E0	4.246545847E0
1.180339787E1	6.942368746E-1	-1.846246719E-1	-4.722445011E0	4.776770665E0
1.181334618E1	7.364804745E-1	4.647254944E-3	-5.187924385E0	5.239941270E0
1.182339684E1	5.668158531E-1	-7.832527161E-3	-5.358149052E0	5.388051858E0
1.183338167E1	1.725302935E-1	-1.413822174E-2	-5.265329838E0	5.268174721E0
1.184332708E1	-2.117092609E-1	2.369308472E-2	-5.027795792E0	5.032306896E0
1.185336829E1	-2.337656021E-1	-1.274166107E-1	-4.899076462E0	4.906305283E0
1.186333340E1	-9.992182255E-2	-1.830024719E-1	-4.795231342E0	4.799762276E0
1.187342695E1	-1.831277609E-1	-1.159219742E-1	-4.350275993E0	4.355671578E0
1.188337972E1	-3.560961485E-1	1.011562347E-1	-3.707614183E0	3.726048843E0
1.189331361E1	-3.856149912E-1	5.046463013E-2	-3.682909489E0	3.703386005E0
1.190327656E1	-6.290543079E-2	-7.230663300E-2	-4.021615028E0	4.022756863E0
1.191328053E1	3.101422787E-1	-9.112834930E-2	-4.329174995E0	4.341226641E0
1.192340601E1	3.919023275E-1	-1.906976700E-1	-4.606983185E0	4.627553036E0
1.193337026E1	3.305702209E-1	-3.578729630E-1	-4.956659317E0	4.980544279E0
1.194341738E1	5.700912476E-1	-6.747016907E-1	-5.590314865E0	5.659668426E0
1.195342344E1	2.972191572E-1	-1.002914429E0	-5.621883392E0	5.718369475E0
1.196342147E1	-2.562773824E-1	-1.386761189E0	-5.346132278E0	5.529006695E0
1.197340898E1	-6.608999968E-1	-1.566403866E0	-4.446270466E0	4.760223832E0
1.198331624E1	-1.044350028E0	-1.528892517E0	-3.355914831E0	3.832798412E0
1.199338337E1	-1.084708810E0	-2.188509464E0	-3.283957958E0	4.092743181E0
1.200330094E1	-8.784129024E-1	-2.773195267E0	-2.241221905E0	3.672233223E0
1.201327672E1	-7.180173993E-1	-3.542460442E0	-1.692325115E0	3.991057411E0
1.202327061E1	-9.062923193E-1	-4.093984604E0	-1.345642090E0	4.403728913E0
1.203331605E1	-1.162259102E0	-4.601478577E0	-9.392461777E-1	4.838040377E0
1.204335228E1	-8.644727468E-1	-4.729793549E0	1.434569359E-1	4.810284818E0
1.205338839E1	-5.765693188E-1	-4.951735497E0	1.098317623E0	5.104744676E0
1.206337594E1	-4.624212980E-1	-5.194691658E0	1.436872959E0	5.409552549E0
1.207334272E1	-4.898774624E-2	-4.910105228E0	2.803998947E0	5.654550667E0
1.208339861E1	-5.774605274E-2	-4.434472561E0	4.287773132E0	6.168701641E0
1.209337856E1	-2.475842237E-1	-3.581799507E0	5.099112511E0	6.236307726E0
1.210331503E1	-3.702515662E-1	-3.119532108E0	4.940177917E0	5.854393620E0
1.211331826E1	-4.402034581E-1	-2.710934162E0	4.856330872E0	5.579148022E0
1.212329638E1	-6.062154770E-1	-2.738207817E0	3.224026680E0	4.273128513E0
1.213334194E1	-1.181039214E-1	-2.417722940E0	4.209391594E0	4.855750235E0
1.214332772E1	4.144217968E-1	-2.167578936E0	5.244091034E0	5.689519720E0
1.215327811E1	1.436483264E-1	-2.209200144E0	3.950844765E0	4.528838093E0
1.216333481E1	-1.783450693E-1	-1.747924209E0	4.028100967E0	4.394615274E0
1.217338965E1	-3.766106367E-1	-9.011052251E-1	4.291643143E0	4.401366499E0
1.218335358E1	-2.888076603E-1	-8.740478754E-1	4.173627853E0	4.273937179E0
1.219334654E1	-4.500886798E-2	-9.519610405E-1	4.249455452E0	4.355011740E0
1.220333552E1	1.612344533E-1	-8.338497877E-1	4.195972443E0	4.281061405E0
1.221332701E1	1.228151321E-1	-6.709583402E-1	3.802493095E0	3.863188112E0
1.222330375E1	1.952051371E-1	-6.329523325E-1	3.067399979E0	3.138100752E0
1.223331763E1	5.463735759E-2	-9.063456059E-1	2.202175140E0	2.382020770E0
1.224331706E1	-4.490181804E-3	-8.738689423E-1	1.516235352E0	1.750039066E0
1.225337578E1	-3.973761201E-2	-7.503804564E-1	1.549480438E0	1.722074196E0
1.226330914E1	-7.403722405E-2	-5.983645320E-1	2.478596687E0	2.550874980E0
1.227336082E1	-5.524492264E-2	-3.870640993E-1	3.845257759E0	3.865084456E0
1.228339916E1	2.174592018E-2	-3.054509163E-1	5.146857262E0	5.155958962E0
1.229346683E1	1.263273358E-1	-5.634164810E-1	5.493978500E0	5.524237186E0
1.230335717E1	1.702531874E-1	-8.663378954E-1	5.047370911E0	5.124010207E0
1.231330983E1	1.378617287E-1	-1.171124101E0	4.427829742E0	4.582162562E0
1.232329367E1	2.550953627E-2	-1.567162156E0	3.837067604E0	4.144844479E0
1.233327908E1	-7.850009203E-2	-1.812072515E0	3.135283470E0	3.622122514E0
1.234328979E1	-2.176749110E-1	-2.095015049E0	2.149571419E0	3.009506223E0
1.235330514E1	-1.393071413E-1	-2.103809357E0	1.919795036E0	2.851496672E0
1.236326582E1	-1.572742462E-1	-1.507252932E0	1.686408997E0	2.267271905E0
1.237333466E1	-6.906308532E-1	-1.386533260E0	1.669599533E0	2.277500397E0
1.238333458E1	-8.046099544E-1	-1.293923378E0	1.616825104E0	2.221656657E0
1.239338954E1	-6.089623570E-1	-1.395841122E0	1.484090805E0	2.126436716E0
1.240335202E1	1.137828827E-2	-2.224683762E0	8.223333359E-1	2.371830394E0
1.241329326E1	5.419173837E-1	-2.370546579E0	-3.013410568E-1	2.450300383E0
1.242338438E1	5.145335793E-1	-2.450881004E0	-1.764758110E0	3.063647122E0
1.243333294E1	3.532861471E-1	-2.456370354E0	-2.794596672E0	3.737423842E0
1.244330372E1	2.314502597E-1	-1.901066780E0	-2.914415836E0	3.487326167E0
1.245337911E1	-1.745732427E-1	-1.682430744E0	-3.292067528E0	3.701183275E0
1.246335831E1	-1.828184128E-1	-1.355895042E0	-3.691112995E0	3.936519920E0
1.247344440E1	-4.100471735E-2	-1.094735146E0	-4.096149445E0	4.240113996E0
1.248343695E1	1.564257145E-1	-9.129981995E-1	-4.412203312E0	4.508389156E0
1.249340072E1	2.927129269E-1	-6.463961601E-1	-4.569675446E0	4.624439699E0
1.250346061E1	3.140082359E-1	-3.210120201E-1	-4.515037537E0	4.537313505E0
1.251334656E1	2.590893507E-1	-5.422592163E-2	-4.599326611E0	4.606937487E0
1.252335053E1	1.430246830E-1	2.262306213E-2	-4.635234356E0	4.637495595E0
1.253333851E1	1.387212276E-1	6.273841858E-2	-4.643659115E0	4.646154287E0
1.254334101E1	6.374204159E-2	-1.361045837E-1	-5.067282677E0	5.069510946E0
1.255335375E1	-6.054878235E-3	-3.729419708E-1	-5.517063141E0	5.529657139E0
1.256338313E1	4.528272152E-2	-3.686723709E-1	-5.769426346E0	5.781370962E0
1.257334581E1	8.159494400E-2	-3.319578171E-1	-6.235266685E0	6.244630042E0
1.258339016E1	1.432386637E-1	-2.989387512E-1	-6.817701340E0	6.825755141E0
1.259335583E1	2.662249804E-1	-3.375978470E-1	-7.160960197E0	7.173855239E0
1.260329316E1	1.437141895E-1	-5.856943130E-1	-7.016254425E0	7.042124520E0
1.261324633E1	-1.099190712E-1	-6.020326614E-1	-6.698551178E0	6.726448796E0
1.262327992E1	-5.021139383E-1	-3.450269699E-1	-5.715012550E0	5.747393363E0
1.263325571E1	-1.294914961E0	-1.329115391E0	-4.374577045E0	4.751870874E0
1.264330060E1	-1.257489562E0	-2.112856865E0	-4.338802814E0	4.987048626E0
1.265335405E1	-7.098222375E-1	-2.997570038E0	-4.336504936E0	5.319262054E0
1.266333378E1	2.395260334E-1	-3.908726692E0	-4.169470787E0	5.720140184E0
1.267337014E1	8.784036636E-1	-4.504136086E0	-3.338555098E0	5.674925992E0
1.268328982E1	1.440275908E-1	-4.885579586E0	-2.652758360E0	5.561183215E0
1.269326416E1	-1.174440622E0	-5.147618294E0	-1.062936783E0	5.385825794E0
1.270328533E1	-2.012309313E0	-4.613556862E0	2.402384281E0	5.577252542E0
1.271329641E1	-2.017647982E0	-4.312131405E0	1.843250751E0	5.105188925E0
1.272332096E1	-1.352436066E0	-4.892582417E0	2.330882549E0	5.585647632E0
1.273331223E1	-4.012374878E-1	-5.319685936E0	3.950257301E0	6.638115902E0
1.274334686E1	2.002049088E-1	-5.173867702E0	3.356605530E0	6.170558297E0
1.275337468E1	2.273522615E-1	-5.014223099E0	3.630058289E0	6.194468945E0
1.276331259E1	2.065402865E-1	-4.691960335E0	4.142958641E0	6.262687680E0
1.277339505E1	-1.062674522E-1	-3.961368322E0	4.214525223E0	5.784976630E0
1.278332827E1	-3.412004411E-1	-3.254421711E0	5.768274307E0	6.631792133E0
1.279341289E1	-6.176925302E-1	-2.360364437E0	6.384586334E0	6.834896268E0
1.280336469E1	-7.429205775E-1	-1.884855032E0	3.732666016E0	4.247046628E0
1.281342410E1	-7.469122410E-1	-1.773291349E0	1.677021980E0	2.552419015E0
1.282347480E1	-6.445904970E-1	-1.630721807E0	1.304714203E0	2.185641707E0
1.283344915E1	-5.472955704E-1	-1.860549688E0	1.863328934E0	2.689455763E0
1.284443432E1	2.691333592E-1	-1.987127066E0	4.175298691E0	4.631870669E0
1.285387641E1	1.655535698E-1	-1.630215764E0	4.197793007E0	4.506270914E0
1.286367946E1	-1.363002807E-1	-1.114377737E0	4.213076591E0	4.360095168E0
1.287350898E1	-4.540155232E-1	-5.873757005E-1	3.776874542E0	3.849145570E0
1.288340424E1	-6.772775054E-1	-3.004027605E-1	3.308194160E0	3.390146788E0
1.289347687E1	-5.239487886E-1	-3.144794703E-1	3.477176666E0	3.530464168E0
1.290341668E1	-1.576264054E-1	-2.716816068E-1	3.987552643E0	3.999904131E0
1.291333759E1	-1.240777820E-1	-2.849912047E-1	4.191477776E0	4.202987179E0
1.292331355E1	-2.231159359E-1	-3.760494590E-1	3.728639603E0	3.754190619E0
1.293325702E1	-2.661933899E-1	-4.588275552E-1	3.393724442E0	3.434930455E0
1.294337276E1	-2.821556628E-1	-6.580448747E-1	3.302861214E0	3.379574984E0
1.295332013E1	-2.149433494E-1	-1.117220879E0	2.662654877E0	2.895533479E0
1.296329882E1	2.776859403E-1	-1.359199047E0	3.609774590E0	3.867170040E0
1.297328966E1	5.842472911E-1	-1.549552679E0	4.992456436E0	5.259950539E0
1.298329908E1	4.699332714E-1	-1.831038713E0	5.142662048E0	5.479097827E0
1.299329079E1	-7.986649871E-2	-2.192572594E0	4.656965256E0	5.147919835E0
1.300325914E1	-5.266886353E-1	-2.566605091E0	3.940699577E0	4.732227358E0
1.301329032E1	-6.294425726E-1	-2.589374304E0	3.729425430E0	4.583630796E0
1.302329341E1	-8.720480204E-1	-2.322469473E0	4.609912872E0	5.235038576E0
1.303337796E1	-8.168141842E-1	-2.178950787E0	3.996432304E0	4.624552206E0
1.304334873E1	-4.291277528E-1	-2.206345558E0	3.030430794E0	3.773012344E0
1.305358161E1	-2.354882360E-1	-2.218006134E0	1.273439407E0	2.568395188E0
1.306342606E1	1.969292164E-1	-2.207349777E0	5.100688934E-1	2.274059021E0
1.307337228E1	3.961422443E-1	-2.131137609E0	-9.358406067E-3	2.167663204E0
1.308333939E1	-4.277846813E-1	-2.446750879E0	2.033343315E-1	2.492174643E0
1.309333244E1	-4.523157477E-1	-2.593386889E0	-7.881851196E-1	2.747995792E0
1.310333147E1	-6.321589947E-1	-3.309660912E0	-2.473279476E0	4.179783692E0
1.311338599E1	-1.355315447E-1	-3.285135984E0	-2.853213787E0	4.353310941E0
1.312337324E1	2.687975168E-1	-2.738052845E0	-3.806632757E0	4.696768936E0
1.313331737E1	5.190865993E-1	-1.912082672E0	-4.746938229E0	5.143824802E0
1.314333744E1	2.493393421E-1	-1.361453533E0	-5.690460205E0	5.856369454E0
1.315329047E1	6.281673908E-2	-7.143802643E-1	-5.945877552E0	5.988968606E0
1.316332498E1	-4.430603981E-2	-2.518830299E-1	-5.743465900E0	5.749157211E0
1.317332874E1	-4.434466362E-2	-3.741979599E-1	-5.460072517E0	5.473059698E0
1.318329962E1	1.885557175E-1	-4.348921776E-1	-5.392688751E0	5.413480990E0
1.319335506E1	4.065437317E-1	-1.495103836E-1	-5.487019539E0	5.504090713E0
1.320333078E1	2.422062159E-1	4.851722717E-2	-5.568444252E0	5.573920448E0
1.321337664E1	-2.983721495E-1	-3.071155548E-1	-5.379388809E0	5.396403419E0
1.322333257E1	-6.437654495E-1	-4.112119675E-1	-5.265420914E0	5.320543829E0
1.323330304E1	-5.695970654E-1	-1.792106628E-1	-5.250236511E0	5.284083715E0
1.324330277E1	-3.870431185E-1	-1.520299911E-1	-5.070905685E0	5.087926883E0
1.325336263E1	-1.362655163E-1	-2.449760437E-1	-4.958241463E0	4.966159477E0
1.326331957E1	-1.055815220E-1	-3.452711105E-1	-4.980836391E0	4.993905361E0
1.327327803E1	-2.405548096E-2	-3.341321945E-1	-5.051980972E0	5.063075620E0
1.328337727E1	7.189297676E-2	-3.741512299E-1	-4.976595402E0	4.991158136E0
1.329332038E1	-2.480745316E-2	-4.714040756E-1	-4.616758347E0	4.640829112E0
1.330331394E1	-2.733187675E-1	-6.833992004E-1	-4.527327538E0	4.586767080E0
1.331328672E1	-2.543669939E-1	-1.359544754E0	-5.208529472E0	5.389048503E0
1.332332461E1	-1.020355225E-1	-1.823549747E0	-5.528565884E0	5.822438120E0
1.333332356E1	-3.978716731E-1	-2.195172787E0	-5.343072891E0	5.790122050E0
1.334333303E1	-1.020976782E0	-2.555943489E0	-4.834156036E0	5.562760582E0
1.335332676E1	-1.124084711E0	-2.788271427E0	-3.650520325E0	4.729093214E0
1.336329413E1	-1.124140143E0	-3.712761879E0	-2.449900866E0	4.588061255E0
1.337329382E1	-1.396707535E0	-4.661931992E0	-4.057273865E-1	4.883545489E0
1.338330916E1	-1.763381124E0	-4.601832390E0	8.615446091E-2	4.928873799E0
1.339328233E1	-1.261983037E0	-4.656908989E0	-1.668152809E0	5.105108844E0
1.340327191E1	-5.757424831E-1	-5.315859318E0	2.528572083E-2	5.347006551E0
1.341333371E1	-2.498518229E-1	-5.855613232E0	1.391550541E0	6.023872937E0
1.342331960E1	-1.286992431E-1	-5.691052437E0	3.869150162E0	6.882947356E0
1.343332105E1	8.377510309E-2	-5.445298672E0	5.032837868E0	7.415372741E0
1.344332778E1	-1.562365890E-1	-4.827887058E0	4.927680969E0	6.900358183E0
1.345349064E1	-8.840464354E-1	-4.484600544E0	3.019934654E0	5.478429105E0
1.346338257E1	-1.065041184E0	-4.130333424E0	2.383306503E0	4.886114694E0
1.347332203E1	-6.124961376E-1	-3.732633591E0	2.742040634E0	4.671883119E0
1.348338077E1	-9.162219167E-1	-4.222529888E0	2.443316460E0	4.963770400E0
1.349331213E1	-7.227685452E-1	-3.556680202E0	4.249208450E0	5.588214463E0
1.350358882E1	-2.220474035E-1	-2.589051247E0	4.647156715E0	5.324336291E0
1.351346766E1	-1.827351302E-1	-2.244861841E0	3.894471169E0	4.498855687E0
1.352342358E1	-9.554576129E-2	-2.364975214E0	3.578136444E0	4.290139528E0
1.353339204E1	3.229975700E-1	-1.988277912E0	5.096401215E0	5.480043962E0
1.354342127E1	-8.343531191E-2	-1.585523725E0	6.358533859E0	6.553762261E0
1.355362988E1	-3.838860691E-1	-1.261202455E0	6.800073624E0	6.926687623E0
1.356341069E1	-7.205629349E-1	-8.138275146E-1	6.792074203E0	6.878502610E0
1.357336510E1	-8.716660738E-1	-3.551185131E-1	6.628787041E0	6.695276584E0
1.358329630E1	-9.305614829E-1	-3.455582857E-1	5.285267830E0	5.377677123E0
1.359330040E1	-1.063878894E0	-7.492994070E-1	3.244390488E0	3.495619765E0
1.360333345E1	-8.119329214E-1	-8.990700245E-1	1.681706429E0	2.072606690E0
1.361328947E1	-5.387597084E-1	-9.494835734E-1	1.560991287E0	1.904855606E0
1.362333849E1	-4.092057347E-1	-1.386366606E0	2.090580940E0	2.541651110E0
1.363332849E1	1.849605888E-1	-1.563742638E0	2.440001488E0	2.903981528E0
1.364335450E1	7.581781149E-1	-1.595314264E0	2.502783775E0	3.063296963E0
1.365336300E1	7.335213423E-1	-1.771760583E0	1.928419113E0	2.719556839E0
1.366337775E1	6.721042395E-1	-1.589745998E0	3.036861420E0	3.493070817E0
1.367337062E1	5.451532602E-1	-1.375512362E0	3.560323715E0	3.855532556E0
1.368331756E1	1.380518824E-1	-1.555379748E0	4.624306679E0	4.880827465E0
1.369328103E1	3.631544411E-1	-1.270847321E0	5.618657112E0	5.772022332E0
1.370368377E1	-3.816542625E-1	-1.760316133E0	4.895767212E0	5.216599415E0
1.371351663E1	-1.668663740E0	-3.080747128E0	3.687808037E0	5.086783823E0
1.372347607E1	-2.300671101E0	-4.095747948E0	1.865624428E0	5.054581414E0
1.373337978E1	-1.711407900E0	-4.294999123E0	2.875358582E0	5.444595617E0
1.374331264E1	-1.038401842E0	-4.145306587E0	9.788646698E-1	4.384064453E0
1.375338957E1	-3.161862493E-1	-3.455146551E0	9.390792847E-1	3.594423645E0
1.376332504E1	1.714137793E-1	-1.496560097E0	-6.173949242E-1	1.627959244E0
1.377329577E1	3.434208632E-1	-5.234503746E-1	-1.659398556E0	1.773567521E0
1.378327263E1	8.389716148E-1	-2.333149910E-1	-2.242687225E0	2.405816960E0
1.379324557E1	9.860014915E-1	-1.197577953E0	-2.931370258E0	3.316522801E0
1.380327153E1	1.085179448E0	-2.022730350E0	-3.763967276E0	4.408684856E0
1.381332102E1	1.104168773E0	-2.089099407E0	-4.889322281E0	5.430377278E0
1.382330776E1	8.523126841E-1	-1.800096989E0	-5.050820351E0	5.429325215E0
1.383331213E1	-3.735702634E-1	-2.081828117E0	-4.666062832E0	5.123056256E0
1.384332631E1	-1.145835400E0	-2.220218658E0	-4.747507572E0	5.364805477E0
1.385334541E1	-9.574422836E-1	-1.878478527E0	-5.179238319E0	5.591948397E0
1.386335495E1	-6.426751614E-2	-9.837512970E-1	-5.596491337E0	5.682658903E0
1.387332423E1	8.016741276E-2	-6.335430145E-1	-5.790382385E0	5.825489828E0
1.388329086E1	7.909739017E-2	-5.380601883E-1	-5.919298172E0	5.944228799E0
1.389334318E1	9.608983994E-2	-8.453941345E-2	-5.882755280E0	5.884147334E0
1.390403034E1	1.725864410E-1	7.848396301E-1	-5.881563187E0	5.936206267E0
1.391366092E1	-4.774582386E-2	5.409450531E-1	-5.924734116E0	5.949569359E0
1.392346821E1	4.910612106E-2	1.219720840E-1	-6.250905037E0	6.252287772E0
1.393341586E1	2.524574995E-1	-1.071166992E-1	-6.605322838E0	6.611013430E0
1.394343818E1	6.293511391E-2	-4.545135498E-1	-6.246158600E0	6.262989753E0
1.395348684E1	-1.468755007E-1	-5.358934402E-1	-5.745515347E0	5.772321958E0
1.396349567E1	-1.615128517E-1	-2.270698547E-1	-5.163543701E0	5.171057017E0
1.397344858E1	-4.388346672E-1	-1.988096237E-1	-4.339421749E0	4.366083170E0
1.398338054E1	-8.700003028E-1	-6.564188004E-1	-3.763265848E0	3.917901991E0
1.399333302E1	-8.607711196E-1	-1.625680447E0	-4.322310925E0	4.697460544E0
1.400338626E1	-4.756999016E-2	-1.775669098E0	-4.992621899E0	5.299201550E0
1.401333288E1	1.127212048E-1	-2.461540222E0	-5.473363876E0	6.002466031E0
1.402334569E1	6.306087971E-2	-3.143648624E0	-5.926513672E0	6.708954289E0
1.403337910E1	1.522696018E-2	-3.703139782E0	-5.287798405E0	6.455562568E0
1.404332730E1	-9.038392305E-1	-4.201348305E0	-2.769359589E0	5.112495033E0
1.405334690E1	-1.577745080E0	-3.888691187E0	3.750710487E-1	4.213297637E0
1.406330220E1	-1.871535778E0	-4.238888741E0	-1.187052727E-1	4.635182290E0
1.407389235E1	-1.405107737E0	-4.860523701E0	1.616135597E0	5.311394606E0
1.408357892E1	-6.269677877E-1	-5.172789574E0	2.252468109E0	5.676658627E0
1.409340471E1	-4.221438766E-1	-5.141133785E0	2.376829147E0	5.679681227E0
1.410336561E1	-9.117294550E-1	-5.666235924E0	2.482655525E0	6.253083927E0
1.411340255E1	-1.296561599E0	-6.292672634E0	3.111085892E0	7.138463160E0
1.412338403E1	-3.301029205E-1	-5.433665752E0	4.572608948E0	7.109320927E0
1.413345126E1	3.048470020E-1	-4.721037865E0	5.905714035E0	7.566940497E0
1.414339188E1	1.561362147E-1	-3.526179552E0	6.455897331E0	7.357780311E0
1.415349569E1	-5.161228776E-1	-2.357889414E0	6.532552719E0	6.964213548E0
1.416340060E1	-6.768110991E-1	-1.760969162E0	3.818984985E0	4.259545982E0
1.417350405E1	-5.255843997E-1	-1.734615803E0	2.162157059E0	2.821356782E0
1.418359377E1	-7.509001344E-2	-1.516151428E0	2.918745041E0	3.289897609E0
1.419381064E1	1.905125231E-1	-1.203932762E0	3.444979668E0	3.654262446E0
1.420365407E1	-5.342123657E-2	-1.366303444E0	3.222060204E0	3.500187264E0
1.421352978E1	-1.784372032E-1	-1.502826929E0	2.769471169E0	3.155994165E0
1.422399714E1	1.659285128E-1	-1.421175718E0	2.681282997E0	3.039169493E0
1.423365882E1	1.787199676E-1	-1.110225558E0	2.326064110E0	2.583624559E0
1.424346566E1	-1.271048188E-2	-7.855037451E-1	2.030041695E0	2.176751472E0
1.425338658E1	-2.615411878E-1	-8.085848689E-1	1.833031654E0	2.020450031E0
1.426333954E1	-3.796735406E-1	-9.711244106E-1	1.862702370E0	2.134688440E0
1.427335452E1	-2.731279433E-1	-8.964192271E-1	1.694135666E0	1.936042861E0
1.428330051E1	-1.384329945E-1	-7.756838202E-1	1.430212975E0	1.632898722E0
1.429327951E1	-5.243682116E-2	-7.740331292E-1	1.292403221E0	1.507376194E0
1.430336400E1	7.398402691E-2	-7.514845133E-1	1.225727081E0	1.439656031E0
1.431346725E1	1.609150618E-1	-6.584655046E-1	9.561681747E-1	1.172061456E0
1.432338738E1	3.858909011E-2	-6.720567942E-1	7.581348419E-1	1.013862856E0
1.433331844E1	-1.241720468E-2	-6.023834944E-1	6.019697189E-1	8.516968967E-1
1.434331547E1	1.874662936E-3	-5.455965996E-1	5.428304672E-1	7.696389283E-1
1.435333348E1	-1.636284590E-2	-5.275397897E-1	4.120512009E-1	6.695910428E-1
1.436333949E1	-4.636743665E-2	-4.797427654E-1	2.515716553E-1	5.436831411E-1
1.437330500E1	-5.609729141E-2	-4.499848485E-1	-1.042270660E-2	4.535878116E-1
1.438328175E1	-7.920951396E-2	-4.340562522E-1	-2.589302063E-1	5.115895122E-1
1.439328062E1	-1.040242910E-1	-4.033271074E-1	-4.879360199E-1	6.415414002E-1
1.440326706E1	-9.276754409E-2	-4.427278936E-1	-5.537643433E-1	7.150305958E-1
1.441328328E1	-3.895647824E-2	-4.743776917E-1	-4.026069641E-1	6.234133213E-1
1.442330839E1	-9.839460254E-3	-5.155346990E-1	-3.567018509E-1	6.269840917E-1
1.443331545E1	-1.664781570E-2	-5.229215026E-1	-3.897943497E-1	6.524290633E-1
1.444332997E1	-4.404805601E-2	-5.124046803E-1	-3.977632523E-1	6.501648963E-1
1.445338274E1	-4.187797010E-2	-4.789906442E-1	-3.111639023E-1	5.727205040E-1
1.446331812E1	-2.883413434E-2	-4.546607733E-1	-3.095989227E-1	5.508169560E-1
1.447336981E1	-8.859230578E-2	-5.315431356E-1	-3.738946915E-1	6.558840919E-1
1.448344665E1	-1.008135229E-1	-5.723178387E-1	-4.896135330E-1	7.598897858E-1
1.449335558E1	-2.111908793E-2	-5.491085649E-1	-3.825168610E-1	6.695411718E-1
1.450331754E1	2.697198093E-2	-5.395324230E-1	-3.135662079E-1	6.246170747E-1
1.451335702E1	-4.569858313E-3	-5.373111367E-1	-3.702650070E-1	6.525490914E-1
1.452332426E1	-5.959071219E-2	-5.044150352E-1	-4.617261887E-1	6.864230868E-1
1.453330638E1	-1.117953360E-1	-4.843029082E-1	-4.994430542E-1	7.046210814E-1
1.454327694E1	-9.849126637E-2	-5.117572546E-1	-4.798898697E-1	7.084421672E-1
1.455329622E1	-1.013810039E-1	-4.706000388E-1	-4.546308517E-1	6.621417641E-1
1.456329186E1	-1.722854972E-1	-4.172402322E-1	-3.577432632E-1	5.759791197E-1
1.457334618E1	-1.907935143E-1	-3.808348179E-1	-1.388540268E-1	4.480153617E-1
1.458332834E1	-1.303038597E-1	-4.140645862E-1	1.075019836E-1	4.471971085E-1
1.459334942E1	-2.107679844E-2	-4.837431312E-1	2.388658524E-1	5.399153117E-1
1.460342096E1	7.252001762E-2	-5.602236986E-1	2.146177292E-1	6.042934015E-1
1.461343623E1	5.422492325E-2	-5.505400300E-1	8.399200439E-2	5.595438533E-1
1.462361136E1	-3.182825446E-2	-4.897218049E-1	-4.762554169E-2	4.930605198E-1
1.463348543E1	-7.994201779E-2	-4.265807867E-1	-1.365642548E-1	4.549853728E-1
1.464343397E1	-4.075700045E-2	-4.164376259E-1	-1.236658096E-1	4.363194493E-1
1.465353623E1	5.283072591E-3	-4.224832058E-1	-1.095123291E-1	4.364778577E-1
1.466344637E1	1.028306782E-2	-3.519975543E-1	-1.420049667E-1	3.797017649E-1
1.467373743E1	-1.006329060E-1	-2.151072025E-1	3.869628906E-2	2.406148232E-1
1.468350297E1	-5.820968747E-2	-2.191564441E-1	1.308403015E-1	2.617959113E-1
1.469343223E1	-6.953597069E-3	-1.821485758E-1	9.366226196E-2	2.049367597E-1
1.470339037E1	-4.826536775E-2	-1.943945289E-1	-4.532337189E-2	2.053606258E-1
1.471337093E1	-4.510675371E-2	-2.115311921E-1	-1.770753860E-1	2.795277389E-1
1.472340522E1	4.302710295E-4	-2.916087210E-1	-9.202194214E-2	3.057840237E-1
1.473334736E1	1.503351927E-1	-3.755892515E-1	-1.025924683E-1	4.173645535E-1
1.474334643E1	2.058338225E-1	-4.151264429E-1	-1.693801880E-1	4.933428566E-1
1.475341896E1	1.775947511E-1	-4.120034277E-1	-2.241296768E-1	5.015185262E-1
1.476336373E1	1.926226616E-1	-3.712007403E-1	-1.362876892E-1	4.398497625E-1
1.477345112E1	2.621674836E-1	-3.121852577E-1	2.928543091E-2	4.087163577E-1
1.478336481E1	1.781450361E-1	-2.376055717E-1	1.891708374E-2	2.975733820E-1
1.479334215E1	2.283930779E-3	-2.059249133E-1	-1.554670334E-1	2.580315576E-1
1.480335533E1	-1.304795146E-1	-1.806195676E-1	-3.621597290E-1	4.252152411E-1
1.481334841E1	-1.372214109E-1	-6.550663710E-2	-4.909448624E-1	5.139530066E-1
1.482336146E1	-8.594600856E-2	-5.041125417E-2	-6.806993484E-1	6.879532062E-1
1.483332398E1	1.304523647E-2	-9.885597229E-2	-7.566480637E-1	7.631899984E-1
1.484330024E1	1.276089549E-1	-1.481729150E-1	-2.495365143E-1	3.170295413E-1
1.485336987E1	9.115295112E-2	-3.272262216E-1	6.118297577E-2	3.451510062E-1
1.486333868E1	-2.108186483E-3	-4.343381226E-1	-2.246837616E-1	4.890161980E-1
1.487346709E1	3.554452956E-2	-2.792365551E-1	-1.357002258E-1	3.124916296E-1
1.488337880E1	7.417991757E-2	-1.095618904E-1	2.672891617E-1	2.982448054E-1
1.489336915E1	-1.879617572E-3	-3.146681190E-2	6.057939529E-1	6.066135563E-1
1.490334632E1	-1.882189959E-1	-9.916177392E-2	2.745246887E-2	2.145066103E-1
1.491335041E1	-1.136768460E-1	-1.553778350E-1	-2.815198898E-1	3.410544609E-1
1.492338396E1	-5.154249072E-2	-1.675138324E-1	-4.934797287E-1	5.236790573E-1
1.493332123E1	-5.647410452E-2	-1.300667822E-1	-3.772611618E-1	4.030293743E-1
1.494330986E1	-1.052098349E-1	-8.706197143E-2	-2.907590866E-1	3.212316028E-1
1.495329068E1	-6.951572001E-2	-7.404544950E-2	-1.850271225E-1	2.110691829E-1
1.496330909E1	8.151553571E-3	-1.475615203E-1	-1.954841614E-2	1.490737760E-1
1.497338180E1	4.220217094E-2	-2.530420423E-1	-9.726142883E-2	2.743557616E-1
1.498329415E1	6.236236170E-2	-2.768973112E-1	-4.098730087E-1	4.985549803E-1
1.499331532E1	5.826776475E-2	-2.419059128E-1	-3.815498352E-1	4.555149611E-1
1.500334991E1	2.002055198E-2	-2.728004158E-1	-4.086112976E-2	2.765691980E-1
1.501333071E1	-1.022553742E-1	-2.425127923E-1	3.166189194E-1	4.117233976E-1
1.502338760E1	-3.165268004E-1	-5.146503448E-2	6.671133041E-1	7.401878314E-1
1.503329655E1	-4.893223643E-1	1.049822867E-1	7.724304199E-1	9.203838386E-1
1.504339652E1	-5.338035822E-1	1.406655312E-1	4.937496185E-1	7.406225367E-1
1.505336351E1	-4.178294241E-1	8.480927348E-2	3.159704208E-1	5.306706581E-1
1.506331201E1	-3.624829352E-1	-7.953438163E-2	2.211809158E-1	4.320192052E-1
1.507340675E1	-1.684510410E-1	-1.725967079E-1	-3.235435486E-2	2.433355319E-1
1.508336263E1	-4.698202014E-2	-2.140112519E-1	-3.275203705E-2	2.215419195E-1
1.509336556E1	3.125038743E-2	-1.219478399E-1	-1.621274948E-1	2.052637010E-1
1.510338553E1	2.728569508E-2	4.377105832E-2	-2.710170746E-1	2.758816221E-1
1.511335852E1	-2.786565423E-1	-1.048041880E-1	-4.769754410E-1	5.622623566E-1
1.512381651E1	-2.232351899E-1	-1.783287227E-1	-3.722743988E-1	4.692795663E-1
1.513354550E1	4.130786657E-2	-1.503437161E-1	-1.855144501E-1	2.423327960E-1
1.514343000E1	-7.641530037E-2	-1.090860367E-1	1.493759155E-1	2.001305216E-1
1.515339125E1	-2.587150335E-1	-1.350502372E-1	2.768564224E-1	4.022704485E-1
1.516331488E1	-2.964704037E-1	-1.120585650E-1	3.298664093E-1	4.574534624E-1
1.517338169E1	-2.601142526E-1	-1.604751647E-1	2.724866867E-1	4.094639145E-1
1.518335959E1	-3.024603724E-1	-2.715044320E-1	2.713451385E-1	4.886973682E-1
1.519332805E1	-1.447285414E-1	-2.395565808E-1	-1.442909241E-2	2.802532869E-1
1.520335827E1	2.777534723E-2	-1.603705883E-1	-1.692028046E-1	2.347760307E-1
1.521333889E1	-1.093864441E-3	-1.584207416E-1	-6.168670654E-1	6.368856289E-1
1.522331569E1	4.332965612E-2	-1.082980335E-1	-7.338647842E-1	7.430770113E-1
1.523327510E1	1.586613655E-1	-6.703886390E-2	-4.655838013E-1	4.964231201E-1
1.524332880E1	2.378609478E-1	9.748935699E-4	-1.895217896E-1	3.041336707E-1
1.525330715E1	3.891369104E-1	1.000411808E-1	6.964683533E-3	4.018510666E-1
1.526334082E1	3.082361519E-1	-2.344727516E-3	1.157398224E-1	3.292578467E-1
1.527332666E1	1.391673088E-2	-1.213411689E-1	-1.130113602E-1	1.663998864E-1
1.528341008E1	-1.593621373E-1	-4.749399424E-2	-2.947254181E-1	3.384007127E-1
1.529343329E1	1.158995032E-1	1.475301683E-1	-6.113080978E-1	6.394493224E-1
1.530336490E1	1.757898927E-1	8.848616481E-2	-5.924901962E-1	6.243208473E-1
1.531332820E1	1.572734714E-1	7.578507066E-2	-4.719142914E-1	5.031713626E-1
1.532339785E1	3.033646643E-1	2.285474241E-1	-4.685945511E-1	6.031955719E-1
1.533334917E1	2.253201008E-1	1.147636473E-1	-3.864650726E-1	4.618388192E-1
1.534335884E1	-3.915661573E-2	-9.512279928E-2	-4.240322113E-2	1.112637437E-1
1.535343667E1	2.830963731E-1	1.373985708E-1	-2.263116837E-1	3.876066329E-1
1.536338058E1	9.723401070E-2	-9.550230205E-2	2.424430847E-2	1.384302316E-1
1.537333454E1	1.941913366E-1	2.427103668E-1	1.800823212E-1	3.592328490E-1
1.538331302E1	-1.305103302E-3	2.100673318E-1	-5.271053314E-2	2.165834423E-1
1.539329126E1	6.556397676E-2	-2.299128920E-1	3.022060394E-1	3.853401915E-1
1.540330988E1	3.544985056E-1	1.165490299E-1	6.939830780E-1	7.879501123E-1
1.541328619E1	1.413832188E0	6.152268648E-1	-1.568593979E-1	1.549848515E0
1.542327734E1	8.910895586E-1	5.644635558E-1	1.941366196E-1	1.072543115E0
1.543332592E1	7.359075546E-1	1.848407090E-1	3.050708771E-1	8.177984206E-1
1.544331821E1	5.928695202E-1	2.479209602E-1	5.165691376E-1	8.245015126E-1
1.545332986E1	7.362771630E-1	3.431210220E-1	5.271043777E-1	9.683362647E-1
1.546333018E1	7.444223166E-1	3.562159240E-1	5.070800781E-1	9.685992853E-1
1.547333384E1	6.074129939E-1	2.406450212E-1	3.178586960E-1	7.265636393E-1
1.548330967E1	6.387171745E-1	2.959259450E-1	1.176595688E-1	7.137055192E-1
1.549335258E1	8.922601342E-1	5.020093918E-1	3.360347748E-1	1.077525381E0
1.550331304E1	1.053706527E0	6.341344714E-1	5.932359695E-1	1.365413083E0
1.551325577E1	8.258386254E-1	5.759599209E-1	3.778524399E-1	1.075412354E0
1.552323664E1	7.210502625E-1	7.138305902E-1	-1.065664291E-1	1.020207820E0
1.553326057E1	6.990869045E-1	7.193412781E-1	-5.254449844E-1	1.132372203E0
1.554335053E1	3.435159326E-1	5.308706760E-1	-3.459815979E-1	7.207843899E-1
1.555332252E1	-1.271241903E-1	2.110398412E-1	1.012163162E-1	2.663514915E-1
1.556335401E1	-5.277211070E-1	-1.245972663E-1	4.097251892E-1	6.796239962E-1
1.557332325E1	-1.031200886E0	-7.022734880E-1	8.340282440E-1	1.500721970E0
1.558332638E1	-2.100839853E0	-1.364936113E0	1.080374718E0	2.728330664E0
1.559326444E1	-2.009474277E0	-1.141240716E0	9.145755768E-1	2.485330105E0
1.560330797E1	-1.675361037E0	-9.545434713E-1	-4.704189301E-1	1.984762407E0
1.561331123E1	-1.200363755E0	-2.734615207E-1	-9.445123672E-1	1.551695189E0
1.562339687E1	-4.516441822E-1	7.187855244E-1	-8.697004318E-1	1.215324623E0
1.563350068E1	-3.885245919E-1	5.123608112E-1	-6.958951950E-1	9.474888294E-1
1.564336959E1	-1.316139102E0	-3.075136542E-1	-2.174711227E-1	1.368970589E0
1.565333905E1	-2.494061947E0	-1.081680775E0	9.444236755E-2	2.720165005E0
1.566331327E1	-3.639518261E0	-1.701073766E0	3.408432007E-2	4.017574750E0
1.567328989E1	-4.400540829E0	-2.271934271E0	2.416992188E-2	4.952477067E0
1.568333219E1	-4.440692902E0	-2.548771143E0	3.264245987E-1	5.130549757E0
1.569327235E1	-4.074735165E0	-2.408163548E0	4.295740128E-1	4.752604777E0
1.570327642E1	-3.817492485E0	-2.346876144E0	5.277004242E-1	4.512155167E0
1.571327396E1	-4.051822662E0	-2.786353350E0	1.195363998E0	5.060625156E0
1.572327173E1	-4.248011589E0	-3.425365448E0	1.466537476E0	5.650616168E0
1.573333062E1	-4.365211964E0	-3.925102234E0	1.058343887E0	5.965030999E0
1.574330956E1	-4.547417164E0	-4.239778519E0	3.358707428E-1	6.226357997E0
1.575330303E1	-4.621449947E0	-4.348525047E0	-9.618101120E-1	6.418142130E0
1.576324976E1	-3.758560419E0	-3.715701103E0	-3.150324821E0	6.152865803E0
1.577330263E1	-3.184072495E0	-3.361437321E0	-4.546183109E0	6.488864259E0
1.578332007E1	-3.217939615E0	-3.858605862E0	-5.348040581E0	7.337950164E0
1.579329128E1	-2.734677553E0	-4.466612816E0	-5.169270515E0	7.358698868E0
1.580326439E1	-1.827607155E0	-4.668749809E0	-4.376211166E0	6.654967834E0
1.581325395E1	-2.622653246E-1	-5.163381100E0	-3.256533623E0	6.110179925E0
1.582333272E1	-1.660577357E-1	-5.780411720E0	-2.561190605E0	6.324589484E0
1.583331761E1	-4.870118499E-1	-6.564855576E0	-2.258512974E0	6.959553874E0
1.584327056E1	-2.504670620E-2	-6.407755375E0	-2.491672516E0	6.875200958E0
1.585325403E1	2.631093025E0	-4.551883698E0	-2.247983932E0	5.718017791E0
1.586328276E1	4.969613075E0	-2.577790499E0	-1.498828888E0	5.795562614E0
1.587337813E1	6.386005878E0	-1.263236284E0	-7.019538879E-1	6.547486254E0
1.588334182E1	7.379662037E0	-3.700227439E-1	4.756355286E-1	7.404225670E0
1.589330816E1	8.423257828E0	9.963589311E-1	1.478391647E0	8.609857456E0
1.590335433E1	9.206273079E0	2.513335705E0	1.756650925E0	9.703511882E0
1.591336891E1	9.816644669E0	3.401179790E0	1.234638214E0	1.046225922E1
1.592330021E1	9.918607712E0	3.942113876E0	1.006030083E0	1.072059407E1
1.593338785E1	9.727614403E0	4.062639713E0	5.408878326E-1	1.055576066E1
1.594334018E1	9.188549995E0	3.647812366E0	4.847431183E-2	9.886270067E0
1.595335884E1	8.263604164E0	2.855024815E0	-3.064985275E-1	8.748271933E0
1.596331867E1	8.028838158E0	2.420058727E0	-5.458698273E-1	8.403386239E0
1.597330558E1	8.497009277E0	2.495260715E0	-2.739181519E-1	8.860052136E0
1.598328504E1	9.220010757E0	2.713385105E0	1.447105408E-2	9.610997165E0
1.599331277E1	1.010284424E1	2.939547539E0	3.701629639E-1	1.052831525E1
1.600330614E1	1.118417263E1	3.357924938E0	9.649162292E-1	1.171718570E1
1.601326832E1	1.214757919E1	3.931740999E0	1.540887833E0	1.286066106E1
1.602327941E1	1.237724876E1	3.661661148E0	1.154878616E0	1.295908152E1
1.603327945E1	1.221839905E1	3.095146179E0	2.929878235E-1	1.260773759E1
1.604335598E1	1.046898365E1	5.211251378E-1	4.819297791E-1	1.049301894E1
