"Time (s)","Gyroscope x (rad/s)","Gyroscope y (rad/s)","Gyroscope z (rad/s)","Absolute (rad/s)"
0.000000000E0,-8.429940790E-4,2.748928964E-4,-5.009118468E-4,1.018389807E-3
9.870000000E-3,-8.429940790E-4,-3.359718248E-4,-1.111777499E-3,1.435118564E-3
1.997700000E-2,9.896015981E-4,-3.359718248E-4,-1.111777499E-3,1.525856349E-3
2.997400000E-2,-2.321288921E-4,2.748928964E-4,-1.111777499E-3,1.168545735E-3
3.994400000E-2,-2.321288921E-4,2.748928964E-4,1.099538058E-4,3.762177115E-4
4.997200000E-2,-1.453859499E-3,2.748928964E-4,-5.009118468E-4,1.562109543E-3
6.049500000E-2,-2.321288921E-4,2.748928964E-4,-5.009118468E-4,6.167354419E-4
7.020900000E-2,-2.321288921E-4,2.748928964E-4,-5.009118468E-4,6.167354419E-4
7.995200000E-2,-2.321288921E-4,2.748928964E-4,1.099538058E-4,3.762177115E-4
8.994000000E-2,-8.429940790E-4,-3.359718248E-4,1.099538058E-4,9.141148307E-4
9.994500000E-2,-2.321288921E-4,2.748928964E-4,1.099538058E-4,3.762177115E-4
1.099440000E-1,-2.321288921E-4,-9.468374774E-4,1.099538058E-4,9.810580363E-4
1.199470000E-1,-2.321288921E-4,2.748928964E-4,-1.111777499E-3,1.168545735E-3
1.299440000E-1,-2.321288921E-4,2.748928964E-4,-5.009118468E-4,6.167354419E-4
1.399600000E-1,-2.321288921E-4,-3.359718248E-4,-5.009118468E-4,6.462766960E-4
1.498720000E-1,-8.429940790E-4,-3.359718248E-4,-5.009118468E-4,1.036546556E-3
1.599380000E-1,3.787362948E-4,2.748928964E-4,-5.009118468E-4,6.855070851E-4
1.699440000E-1,3.787362948E-4,2.748928964E-4,-1.111777499E-3,1.206257225E-3
1.799390000E-1,-2.321288921E-4,-3.359718248E-4,1.099538058E-4,4.229074710E-4
1.899390000E-1,3.787362948E-4,-3.359718248E-4,1.099538058E-4,5.180811592E-4
1.999600000E-1,-2.321288921E-4,2.748928964E-4,-1.111777499E-3,1.168545735E-3
2.099310000E-1,-2.321288921E-4,-9.468374774E-4,-5.009118468E-4,1.096037276E-3
2.199920000E-1,-8.429940790E-4,-9.468374774E-4,-5.009118468E-4,1.363104143E-3
2.299460000E-1,3.787362948E-4,2.748928964E-4,1.099538058E-4,4.807256233E-4
2.399680000E-1,-2.321288921E-4,8.857585490E-4,-5.009118468E-4,1.043726357E-3
2.499420000E-1,-2.321288921E-4,8.857585490E-4,-5.009118468E-4,1.043726357E-3
2.599610000E-1,3.787362948E-4,2.748928964E-4,1.099538058E-4,4.807256233E-4
2.699300000E-1,-2.321288921E-4,-3.359718248E-4,-1.111777499E-3,1.184402844E-3
2.800770000E-1,-8.429940790E-4,2.748928964E-4,-5.009118468E-4,1.018389807E-3
2.899360000E-1,-8.429940790E-4,2.748928964E-4,-5.009118468E-4,1.018389807E-3
2.999360000E-1,-2.321288921E-4,2.748928964E-4,-5.009118468E-4,6.167354419E-4
3.099590000E-1,-2.321288921E-4,2.748928964E-4,-5.009118468E-4,6.167354419E-4
3.199660000E-1,-2.321288921E-4,2.748928964E-4,-5.009118468E-4,6.167354419E-4
3.300180000E-1,3.787362948E-4,-3.359718248E-4,-5.009118468E-4,7.122014647E-4
3.399730000E-1,-2.321288921E-4,2.748928964E-4,1.099538058E-4,3.762177115E-4
3.499320000E-1,-8.429940790E-4,-3.359718248E-4,1.099538058E-4,9.141148307E-4
3.600040000E-1,-2.321288921E-4,-9.468374774E-4,1.099538058E-4,9.810580363E-4
3.699690000E-1,-2.321288921E-4,-9.468374774E-4,-5.009118468E-4,1.096037276E-3
3.801540000E-1,-2.321288921E-4,-3.359718248E-4,-5.009118468E-4,6.462766960E-4
3.899050000E-1,3.787362948E-4,-3.359718248E-4,1.099538058E-4,5.180811592E-4
3.999160000E-1,-2.321288921E-4,2.748928964E-4,1.099538058E-4,3.762177115E-4
4.101510000E-1,-2.321288921E-4,2.748928964E-4,1.099538058E-4,3.762177115E-4
4.202720000E-1,-8.429940790E-4,-3.359718248E-4,-5.009118468E-4,1.036546556E-3
4.300720000E-1,-2.321288921E-4,-3.359718248E-4,1.099538058E-4,4.229074710E-4
4.401340000E-1,3.787362948E-4,-3.359718248E-4,7.208194584E-4,8.808512585E-4
4.499790000E-1,-2.321288921E-4,-9.468374774E-4,-5.009118468E-4,1.096037276E-3
4.599020000E-1,-8.429940790E-4,-3.359718248E-4,-5.009118468E-4,1.036546556E-3
4.698370000E-1,-2.321288921E-4,-3.359718248E-4,-1.111777499E-3,1.184402844E-3
4.799550000E-1,3.787362948E-4,2.748928964E-4,1.099538058E-4,4.807256233E-4
4.898990000E-1,-2.321288921E-4,2.748928964E-4,-5.009118468E-4,6.167354419E-4
5.000730000E-1,-2.321288921E-4,2.748928964E-4,-5.009118468E-4,6.167354419E-4
5.098740000E-1,-2.321288921E-4,8.857585490E-4,-5.009118468E-4,1.043726357E-3
5.199440000E-1,3.787362948E-4,-3.359718248E-4,-1.111777499E-3,1.221624924E-3
5.298480000E-1,-2.321288921E-4,2.748928964E-4,1.099538058E-4,3.762177115E-4
5.399230000E-1,3.787362948E-4,-9.468374774E-4,1.099538058E-4,1.025686223E-3
5.500780000E-1,3.787362948E-4,-3.359718248E-4,1.099538058E-4,5.180811592E-4
5.599140000E-1,3.787362948E-4,-3.359718248E-4,-5.009118468E-4,7.122014647E-4
5.698650000E-1,-8.429940790E-4,-9.468374774E-4,-5.009118468E-4,1.363104143E-3
5.799310000E-1,-2.321288921E-4,-3.359718248E-4,-1.111777499E-3,1.184402844E-3
5.899320000E-1,3.787362948E-4,2.748928964E-4,1.099538058E-4,4.807256233E-4
6.001400000E-1,3.787362948E-4,1.496624202E-3,-5.009118468E-4,1.623033536E-3
6.099750000E-1,-2.321288921E-4,-3.359718248E-4,1.099538058E-4,4.229074710E-4
6.199830000E-1,-8.429940790E-4,2.748928964E-4,-5.009118468E-4,1.018389807E-3
6.300980000E-1,-2.321288921E-4,-3.359718248E-4,-5.009118468E-4,6.462766960E-4
6.401420000E-1,-2.321288921E-4,-3.359718248E-4,1.099538058E-4,4.229074710E-4
6.499310000E-1,3.787362948E-4,-3.359718248E-4,1.099538058E-4,5.180811592E-4
6.599310000E-1,3.787362948E-4,2.748928964E-4,1.099538058E-4,4.807256233E-4
6.699770000E-1,3.787362948E-4,2.748928964E-4,7.208194584E-4,8.594114132E-4
6.799050000E-1,3.787362948E-4,2.748928964E-4,1.099538058E-4,4.807256233E-4
6.899490000E-1,-2.321288921E-4,2.748928964E-4,-5.009118468E-4,6.167354419E-4
6.999100000E-1,3.787362948E-4,2.748928964E-4,-5.009118468E-4,6.855070851E-4
7.099240000E-1,3.787362948E-4,2.748928964E-4,-5.009118468E-4,6.855070851E-4
7.201330000E-1,-2.321288921E-4,-3.359718248E-4,-5.009118468E-4,6.462766960E-4
7.300140000E-1,-2.321288921E-4,2.748928964E-4,-5.009118468E-4,6.167354419E-4
7.399760000E-1,-8.429940790E-4,-3.359718248E-4,1.099538058E-4,9.141148307E-4
7.500350000E-1,-2.321288921E-4,-3.359718248E-4,-5.009118468E-4,6.462766960E-4
7.602740000E-1,-2.321288921E-4,2.748928964E-4,7.208194584E-4,8.056243657E-4
7.700130000E-1,-2.321288921E-4,2.748928964E-4,1.099538058E-4,3.762177115E-4
7.801890000E-1,-2.321288921E-4,-3.359718248E-4,-5.009118468E-4,6.462766960E-4
7.900130000E-1,3.787362948E-4,2.748928964E-4,-1.111777499E-3,1.206257225E-3
8.000170000E-1,3.787362948E-4,8.857585490E-4,-5.009118468E-4,1.085781777E-3
8.100170000E-1,-2.321288921E-4,8.857585490E-4,1.099538058E-4,9.222482687E-4
8.201930000E-1,3.787362948E-4,-3.359718248E-4,1.099538058E-4,5.180811592E-4
8.300000000E-1,-2.321288921E-4,2.748928964E-4,1.099538058E-4,3.762177115E-4
8.400000000E-1,-8.429940790E-4,2.748928964E-4,1.099538058E-4,8.934735369E-4
8.500740000E-1,3.787362948E-4,2.748928964E-4,1.099538058E-4,4.807256233E-4
8.599340000E-1,-2.321288921E-4,2.748928964E-4,-5.009118468E-4,6.167354419E-4
8.699190000E-1,9.896015981E-4,2.748928964E-4,1.099538058E-4,1.032941076E-3
8.799310000E-1,3.787362948E-4,2.748928964E-4,-5.009118468E-4,6.855070851E-4
8.899280000E-1,3.787362948E-4,2.748928964E-4,1.099538058E-4,4.807256233E-4
8.999440000E-1,-8.429940790E-4,-3.359718248E-4,-5.009118468E-4,1.036546556E-3
9.098740000E-1,-8.429940790E-4,-9.468374774E-4,1.099538058E-4,1.272489711E-3
9.199430000E-1,3.787362948E-4,-3.359718248E-4,-5.009118468E-4,7.122014647E-4
9.298970000E-1,-8.429940790E-4,-3.359718248E-4,1.099538058E-4,9.141148307E-4
9.399070000E-1,3.787362948E-4,2.748928964E-4,-5.009118468E-4,6.855070851E-4
9.499230000E-1,-2.321288921E-4,2.748928964E-4,-5.009118468E-4,6.167354419E-4
9.599000000E-1,-2.321288921E-4,-3.359718248E-4,-5.009118468E-4,6.462766960E-4
9.698380000E-1,-8.429940790E-4,2.748928964E-4,-5.009118468E-4,1.018389807E-3
9.798650000E-1,-2.321288921E-4,8.857585490E-4,1.099538058E-4,9.222482687E-4
9.900470000E-1,-2.321288921E-4,8.857585490E-4,-5.009118468E-4,1.043726357E-3
9.998810000E-1,-2.321288921E-4,2.748928964E-4,-1.111777499E-3,1.168545735E-3
1.009860000E0,-2.321288921E-4,-9.468374774E-4,-5.009118468E-4,1.096037276E-3
1.020108000E0,-8.429940790E-4,-3.359718248E-4,1.099538058E-4,9.141148307E-4
1.029955000E0,-2.321288921E-4,-3.359718248E-4,-5.009118468E-4,6.462766960E-4
1.039911000E0,-4.886975512E-5,-2.260124311E-4,-4.153903574E-4,4.754145780E-4
1.049989000E0,-6.597349420E-4,3.848522902E-4,-4.153903574E-4,8.694312094E-4
1.059933000E0,-4.886975512E-5,9.957179427E-4,1.954752952E-4,1.015900126E-3
1.070010000E0,-4.886975512E-5,3.848522902E-4,1.954752952E-4,4.344077914E-4
1.079899000E0,5.619954318E-4,9.957179427E-4,1.954752952E-4,1.159958481E-3
1.089969000E0,5.619954318E-4,-2.260124311E-4,1.954752952E-4,6.364990773E-4
1.099891000E0,5.619954318E-4,-2.260124311E-4,1.954752952E-4,6.364990773E-4
1.109930000E0,-4.886975512E-5,9.957179427E-4,8.063409477E-4,1.282196630E-3
1.120006000E0,-4.886975512E-5,3.848522902E-4,-4.153903574E-4,5.683737214E-4
1.129873000E0,-4.886975512E-5,-8.368780836E-4,-4.153903574E-4,9.355759343E-4
1.139886000E0,-6.597349420E-4,3.848522902E-4,1.954752952E-4,7.883984208E-4
1.149877000E0,5.619954318E-4,3.848522902E-4,-4.153903574E-4,7.978090621E-4
1.159909000E0,5.619954318E-4,-2.260124311E-4,8.063409477E-4,1.008516836E-3
1.170048000E0,-4.886975512E-5,3.848522902E-4,1.954752952E-4,4.344077914E-4
1.180112000E0,-4.886975512E-5,-8.368780836E-4,1.954752952E-4,8.607925249E-4
1.189889000E0,-4.886975512E-5,3.848522902E-4,-4.153903574E-4,5.683737214E-4
1.199861000E0,-6.597349420E-4,3.848522902E-4,1.954752952E-4,7.883984208E-4
1.209854000E0,5.619954318E-4,9.957179427E-4,-4.153903574E-4,1.216487664E-3
1.219922000E0,-4.886975512E-5,9.957179427E-4,-4.153903574E-4,1.079996122E-3
1.229866000E0,-4.886975512E-5,-2.260124311E-4,1.954752952E-4,3.027878184E-4
1.239844000E0,-6.597349420E-4,-2.260124311E-4,-4.153903574E-4,8.117148278E-4
1.249906000E0,5.619954318E-4,-2.260124311E-4,-1.026256010E-3,1.191688668E-3
1.259882000E0,-4.886975512E-5,-2.260124311E-4,-4.153903574E-4,4.754145780E-4
1.269884000E0,-4.886975512E-5,-8.368780836E-4,1.954752952E-4,8.607925249E-4
1.279879000E0,-4.886975512E-5,-2.260124311E-4,-4.153903574E-4,4.754145780E-4
1.289891000E0,5.619954318E-4,-8.368780836E-4,1.954752952E-4,1.026846816E-3
1.299956000E0,-4.886975512E-5,9.957179427E-4,-4.153903574E-4,1.079996122E-3
1.309870000E0,-6.597349420E-4,9.957179427E-4,-4.153903574E-4,1.264615975E-3
1.319917000E0,-4.886975512E-5,3.848522902E-4,-4.153903574E-4,5.683737214E-4
1.329895000E0,5.619954318E-4,-2.260124311E-4,-4.153903574E-4,7.344859654E-4
1.339893000E0,-4.886975512E-5,-2.260124311E-4,1.954752952E-4,3.027878184E-4
1.349897000E0,-4.886975512E-5,3.848522902E-4,1.954752952E-4,4.344077914E-4
1.359946000E0,-1.270600362E-3,3.848522902E-4,1.954752952E-4,1.341919206E-3
1.370047000E0,-4.886975512E-5,3.848522902E-4,1.954752952E-4,4.344077914E-4
1.379903000E0,-4.886975512E-5,-8.368780836E-4,1.954752952E-4,8.607925249E-4
1.389958000E0,-1.270600362E-3,3.848522902E-4,-4.153903574E-4,1.391073583E-3
1.399923000E0,-4.886975512E-5,-2.260124311E-4,-4.153903574E-4,4.754145780E-4
1.409965000E0,5.619954318E-4,-2.260124311E-4,1.954752952E-4,6.364990773E-4
1.419951000E0,-4.886975512E-5,-2.260124311E-4,1.954752952E-4,3.027878184E-4
1.429894000E0,-4.886975512E-5,-2.260124311E-4,-4.153903574E-4,4.754145780E-4
1.439873000E0,5.619954318E-4,-2.260124311E-4,1.954752952E-4,6.364990773E-4
1.449893000E0,-4.886975512E-5,-2.260124311E-4,1.954752952E-4,3.027878184E-4
1.459899000E0,-6.597349420E-4,-2.260124311E-4,1.954752952E-4,7.242529971E-4
1.469983000E0,-4.886975512E-5,-2.260124311E-4,1.954752952E-4,3.027878184E-4
1.480095000E0,-6.597349420E-4,-2.260124311E-4,1.954752952E-4,7.242529971E-4
1.489903000E0,-4.886975512E-5,-2.260124311E-4,1.954752952E-4,3.027878184E-4
1.499998000E0,-4.886975512E-5,-2.260124311E-4,-1.026256010E-3,1.051984444E-3
1.509912000E0,-4.886975512E-5,-2.260124311E-4,-4.153903574E-4,4.754145780E-4
1.519989000E0,-1.270600362E-3,-2.260124311E-4,1.954752952E-4,1.305265295E-3
1.529845000E0,-4.886975512E-5,-2.260124311E-4,1.954752952E-4,3.027878184E-4
1.539995000E0,-4.886975512E-5,3.848522902E-4,1.954752952E-4,4.344077914E-4
1.549903000E0,-4.886975512E-5,-2.260124311E-4,1.954752952E-4,3.027878184E-4
1.559947000E0,-4.886975512E-5,3.848522902E-4,-4.153903574E-4,5.683737214E-4
1.569896000E0,-4.886975512E-5,3.848522902E-4,-4.153903574E-4,5.683737214E-4
1.580016000E0,5.619954318E-4,3.848522902E-4,-4.153903574E-4,7.978090621E-4
1.589883000E0,-4.886975512E-5,-2.260124311E-4,1.954752952E-4,3.027878184E-4
1.599890000E0,-6.597349420E-4,-2.260124311E-4,-1.026256010E-3,1.240779276E-3
1.609949000E0,-4.886975512E-5,-2.260124311E-4,-4.153903574E-4,4.754145780E-4
1.619914000E0,-4.886975512E-5,-2.260124311E-4,1.954752952E-4,3.027878184E-4
1.630038000E0,-4.886975512E-5,3.848522902E-4,-4.153903574E-4,5.683737214E-4
1.640152000E0,-4.886975512E-5,-2.260124311E-4,-4.153903574E-4,4.754145780E-4
1.649979000E0,-4.886975512E-5,3.848522902E-4,1.954752952E-4,4.344077914E-4
1.659970000E0,5.619954318E-4,-2.260124311E-4,-4.153903574E-4,7.344859654E-4
1.670063000E0,-4.886975512E-5,-2.260124311E-4,-1.026256010E-3,1.051984444E-3
1.680095000E0,5.619954318E-4,-8.368780836E-4,1.954752952E-4,1.026846816E-3
1.690526000E0,5.619954318E-4,3.848522902E-4,1.954752952E-4,7.086330091E-4
1.700216000E0,5.619954318E-4,-2.260124311E-4,1.954752952E-4,6.364990773E-4
1.709914000E0,5.619954318E-4,3.848522902E-4,8.063409477E-4,1.055526350E-3
1.720015000E0,1.172860735E-3,-2.260124311E-4,1.954752952E-4,1.210328267E-3
1.729897000E0,5.619954318E-4,-2.260124311E-4,1.954752952E-4,6.364990773E-4
1.740141000E0,-4.886975512E-5,-8.368780836E-4,1.954752952E-4,8.607925249E-4
1.749930000E0,-6.597349420E-4,3.848522902E-4,-4.153903574E-4,8.694312094E-4
1.760164000E0,-4.886975512E-5,3.848522902E-4,1.954752952E-4,4.344077914E-4
1.769950000E0,5.619954318E-4,-8.368780836E-4,8.063409477E-4,1.290887104E-3
1.780135000E0,-4.886975512E-5,-2.260124311E-4,-4.153903574E-4,4.754145780E-4
1.790078000E0,-4.886975512E-5,3.848522902E-4,-4.153903574E-4,5.683737214E-4
1.799920000E0,-6.597349420E-4,3.848522902E-4,1.954752952E-4,7.883984208E-4
1.809912000E0,-6.597349420E-4,-2.260124311E-4,-4.153903574E-4,8.117148278E-4
1.819898000E0,5.619954318E-4,3.848522902E-4,1.954752952E-4,7.086330091E-4
1.829982000E0,5.619954318E-4,3.848522902E-4,-4.153903574E-4,7.978090621E-4
1.839953000E0,-4.886975512E-5,-2.260124311E-4,-4.153903574E-4,4.754145780E-4
1.850062000E0,-6.597349420E-4,-2.260124311E-4,1.954752952E-4,7.242529971E-4
1.859962000E0,5.619954318E-4,3.848522902E-4,1.954752952E-4,7.086330091E-4
1.869899000E0,5.619954318E-4,-2.260124311E-4,-4.153903574E-4,7.344859654E-4
1.880154000E0,-4.886975512E-5,3.848522902E-4,1.954752952E-4,4.344077914E-4
1.889937000E0,-4.886975512E-5,-2.260124311E-4,-4.153903574E-4,4.754145780E-4
1.900169000E0,-4.886975512E-5,-2.260124311E-4,-4.153903574E-4,4.754145780E-4
1.909966000E0,-4.886975512E-5,-2.260124311E-4,1.954752952E-4,3.027878184E-4
1.919962000E0,-4.886975512E-5,3.848522902E-4,1.954752952E-4,4.344077914E-4
1.930248000E0,-4.886975512E-5,-2.260124311E-4,-4.153903574E-4,4.754145780E-4
1.939886000E0,-4.886975512E-5,9.957179427E-4,-4.153903574E-4,1.079996122E-3
1.949828000E0,-4.886975512E-5,-8.368780836E-4,-4.153903574E-4,9.355759343E-4
1.959857000E0,5.619954318E-4,-2.260124311E-4,1.954752952E-4,6.364990773E-4
1.969897000E0,-4.886975512E-5,-2.260124311E-4,8.063409477E-4,8.388418182E-4
1.979968000E0,-4.886975512E-5,-2.260124311E-4,1.954752952E-4,3.027878184E-4
1.990042000E0,-4.886975512E-5,-2.260124311E-4,-4.153903574E-4,4.754145780E-4
2.000144000E0,-6.597349420E-4,3.848522902E-4,-4.153903574E-4,8.694312094E-4
2.009922000E0,-4.886975512E-5,3.848522902E-4,1.954752952E-4,4.344077914E-4
2.019890000E0,-4.886975512E-5,-2.260124311E-4,1.954752952E-4,3.027878184E-4
2.030106000E0,5.619954318E-4,3.848522902E-4,-4.153903574E-4,7.978090621E-4
2.040203000E0,-4.886975512E-5,3.848522902E-4,1.954752952E-4,4.344077914E-4
2.050410000E0,-4.886975512E-5,3.848522902E-4,-4.153903574E-4,5.683737214E-4
2.059953000E0,-4.886975512E-5,3.848522902E-4,-4.153903574E-4,5.683737214E-4
2.070037000E0,5.619954318E-4,3.848522902E-4,-4.153903574E-4,7.978090621E-4
2.080091000E0,-4.886975512E-5,9.957179427E-4,8.063409477E-4,1.282196630E-3
2.089881000E0,5.742129870E-4,4.703681916E-4,-1.142319292E-3,1.362299583E-3
2.099960000E0,-3.665219992E-5,4.703681916E-4,-1.142319292E-3,1.235913825E-3
2.109965000E0,-6.475173868E-4,-1.404965296E-4,-5.314536393E-4,8.493886106E-4
2.119954000E0,-3.665219992E-5,-7.513621822E-4,7.941201329E-5,7.564355759E-4
2.129996000E0,5.742129870E-4,-1.404965296E-4,7.941201329E-5,5.964613123E-4
2.139936000E0,-3.665219992E-5,4.703681916E-4,7.941201329E-5,4.784306504E-4
2.150006000E0,-3.665219992E-5,-1.404965296E-4,7.941201329E-5,1.654960013E-4
2.160175000E0,-3.665219992E-5,-1.404965296E-4,7.941201329E-5,1.654960013E-4
2.169920000E0,-3.665219992E-5,-1.404965296E-4,7.941201329E-5,1.654960013E-4
2.180000000E0,1.185078290E-3,4.703681916E-4,7.941201329E-5,1.277483095E-3
2.189918000E0,-6.475173868E-4,-1.404965296E-4,7.941201329E-5,6.673262388E-4
2.200259000E0,-3.665219992E-5,-7.513621822E-4,6.902776659E-4,1.020966096E-3
2.209957000E0,-3.665219992E-5,4.703681916E-4,7.941201329E-5,4.784306504E-4
2.219906000E0,-3.665219992E-5,4.703681916E-4,-5.314536393E-4,7.106564501E-4
2.229902000E0,-3.665219992E-5,4.703681916E-4,-5.314536393E-4,7.106564501E-4
2.239872000E0,-3.665219992E-5,4.703681916E-4,-5.314536393E-4,7.106564501E-4
2.249830000E0,5.742129870E-4,4.703681916E-4,7.941201329E-5,7.465072390E-4
2.259910000E0,5.742129870E-4,-1.404965296E-4,7.941201329E-5,5.964613123E-4
2.269906000E0,-6.475173868E-4,-7.513621822E-4,7.941201329E-5,9.950528443E-4
2.280000000E0,-3.665219992E-5,-1.404965296E-4,-5.314536393E-4,5.509316013E-4
2.289900000E0,5.742129870E-4,-1.404965296E-4,-5.314536393E-4,7.949231409E-4
2.299835000E0,-3.665219992E-5,-1.362226903E-3,-5.314536393E-4,1.462685370E-3
2.309865000E0,-6.475173868E-4,1.081233844E-3,7.941201329E-5,1.262795177E-3
2.319900000E0,-3.665219992E-5,4.703681916E-4,7.941201329E-5,4.784306504E-4
2.329907000E0,-3.665219992E-5,-1.404965296E-4,-5.314536393E-4,5.509316013E-4
2.339921000E0,-3.665219992E-5,-1.404965296E-4,-5.314536393E-4,5.509316013E-4
2.349943000E0,5.742129870E-4,-1.404965296E-4,-5.314536393E-4,7.949231409E-4
2.360115000E0,-3.665219992E-5,4.703681916E-4,-5.314536393E-4,7.106564501E-4
2.369896000E0,-3.665219992E-5,4.703681916E-4,-5.314536393E-4,7.106564501E-4
2.380177000E0,-3.665219992E-5,4.703681916E-4,7.941201329E-5,4.784306504E-4
2.389934000E0,5.742129870E-4,-7.513621822E-4,-1.142319292E-3,1.482956185E-3
2.399945000E0,5.742129870E-4,4.703681916E-4,-5.314536393E-4,9.129127892E-4
2.409936000E0,5.742129870E-4,1.081233844E-3,-5.314536393E-4,1.334627345E-3
2.420099000E0,-3.665219992E-5,4.703681916E-4,7.941201329E-5,4.784306504E-4
2.430036000E0,-3.665219992E-5,-1.404965296E-4,7.941201329E-5,1.654960013E-4
2.440115000E0,-3.665219992E-5,1.081233844E-3,-5.314536393E-4,1.205343511E-3
2.450002000E0,-3.665219992E-5,4.703681916E-4,-5.314536393E-4,7.106564501E-4
2.459951000E0,-3.665219992E-5,-1.404965296E-4,-5.314536393E-4,5.509316013E-4
2.469943000E0,-3.665219992E-5,-1.404965296E-4,6.902776659E-4,7.053835230E-4
2.480146000E0,-3.665219992E-5,-1.404965296E-4,7.941201329E-5,1.654960013E-4
2.489932000E0,-6.475173868E-4,-1.404965296E-4,7.941201329E-5,6.673262388E-4
2.500003000E0,-3.665219992E-5,4.703681916E-4,7.941201329E-5,4.784306504E-4
2.509932000E0,-3.665219992E-5,-7.513621822E-4,7.941201329E-5,7.564355759E-4
2.519916000E0,1.185078290E-3,-7.513621822E-4,-5.314536393E-4,1.500466145E-3
2.529920000E0,5.742129870E-4,-1.404965296E-4,-5.314536393E-4,7.949231409E-4
2.539916000E0,5.742129870E-4,-1.404965296E-4,-5.314536393E-4,7.949231409E-4
2.549889000E0,5.742129870E-4,4.703681916E-4,-5.314536393E-4,9.129127892E-4
2.560142000E0,5.742129870E-4,4.703681916E-4,-5.314536393E-4,9.129127892E-4
2.570048000E0,-3.665219992E-5,-1.404965296E-4,-5.314536393E-4,5.509316013E-4
2.579901000E0,5.742129870E-4,-1.404965296E-4,-1.142319292E-3,1.286216620E-3
2.590104000E0,-3.665219992E-5,-1.404965296E-4,-1.142319292E-3,1.151510323E-3
2.600161000E0,-3.665219992E-5,-1.404965296E-4,7.941201329E-5,1.654960013E-4
2.609963000E0,5.742129870E-4,-7.513621822E-4,-5.314536393E-4,1.084762026E-3
2.619949000E0,-3.665219992E-5,-1.404965296E-4,-5.314536393E-4,5.509316013E-4
2.630053000E0,5.742129870E-4,-7.513621822E-4,7.941201329E-5,9.489846949E-4
2.639884000E0,-3.665219992E-5,-1.404965296E-4,-5.314536393E-4,5.509316013E-4
2.649901000E0,-3.665219992E-5,4.703681916E-4,7.941201329E-5,4.784306504E-4
2.660119000E0,-3.665219992E-5,-7.513621822E-4,-5.314536393E-4,9.210491210E-4
2.670006000E0,5.742129870E-4,-1.404965296E-4,-5.314536393E-4,7.949231409E-4
2.680145000E0,-6.475173868E-4,-1.404965296E-4,7.941201329E-5,6.673262388E-4
2.689998000E0,-6.475173868E-4,-1.404965296E-4,6.902776659E-4,9.568183198E-4
2.699912000E0,-3.665219992E-5,4.703681916E-4,7.941201329E-5,4.784306504E-4
2.709924000E0,5.742129870E-4,-1.404965296E-4,-5.314536393E-4,7.949231409E-4
2.719981000E0,-3.665219992E-5,1.081233844E-3,-5.314536393E-4,1.205343511E-3
2.730021000E0,-6.475173868E-4,-7.513621822E-4,7.941201329E-5,9.950528443E-4
2.740185000E0,-3.665219992E-5,4.703681916E-4,-1.142319292E-3,1.235913825E-3
2.749914000E0,-3.665219992E-5,-1.404965296E-4,-5.314536393E-4,5.509316013E-4
2.759999000E0,-3.665219992E-5,-1.404965296E-4,7.941201329E-5,1.654960013E-4
2.769994000E0,5.742129870E-4,4.703681916E-4,-5.314536393E-4,9.129127892E-4
2.780087000E0,5.742129870E-4,4.703681916E-4,-5.314536393E-4,9.129127892E-4
2.790005000E0,-3.665219992E-5,4.703681916E-4,-5.314536393E-4,7.106564501E-4
2.800012000E0,-3.665219992E-5,4.703681916E-4,-5.314536393E-4,7.106564501E-4
2.809887000E0,-3.665219992E-5,-1.404965296E-4,7.941201329E-5,1.654960013E-4
2.819903000E0,-3.665219992E-5,-1.404965296E-4,-5.314536393E-4,5.509316013E-4
2.829971000E0,5.742129870E-4,-1.404965296E-4,7.941201329E-5,5.964613123E-4
2.840121000E0,5.742129870E-4,-1.404965296E-4,7.941201329E-5,5.964613123E-4
2.850165000E0,-3.665219992E-5,-1.404965296E-4,-1.142319292E-3,1.151510323E-3
2.860007000E0,5.742129870E-4,4.703681916E-4,-1.142319292E-3,1.362299583E-3
2.869877000E0,5.742129870E-4,4.703681916E-4,7.941201329E-5,7.465072390E-4
2.879957000E0,1.185078290E-3,-1.404965296E-4,-5.314536393E-4,1.306366258E-3
2.889874000E0,-3.665219992E-5,4.703681916E-4,-5.314536393E-4,7.106564501E-4
2.899926000E0,-3.665219992E-5,1.692099497E-3,7.941201329E-5,1.694358391E-3
2.910020000E0,-3.665219992E-5,4.746425431E-3,6.902776659E-4,4.796496744E-3
2.919928000E0,1.795943594E-3,1.024421211E-2,-5.314536393E-4,1.041401643E-2
2.929930000E0,5.461134948E-3,1.818546094E-2,-5.314536393E-4,1.899519485E-2
2.940090000E0,7.293730974E-3,2.551584318E-2,7.941201329E-5,2.653795529E-2
2.949953000E0,1.401324850E-2,4.567439854E-2,-5.314536393E-4,4.777870089E-2
2.959926000E0,2.134363167E-2,6.888727844E-2,-1.142319292E-3,7.212705898E-2
2.969902000E0,-5.534439348E-3,-1.968818530E-2,1.168585010E-2,2.355448475E-2
2.979989000E0,-1.869247993E-3,-9.914341383E-3,6.177680194E-2,6.259521956E-2
2.990047000E0,7.293730974E-3,1.818546094E-2,1.149220690E-1,1.165804076E-1
3.000142000E0,1.795943594E-3,-7.513621822E-4,1.094242856E-1,1.094416019E-1
3.009990000E0,-6.145305000E-3,-2.274250984E-2,4.711603373E-2,5.267738758E-2
3.020007000E0,-3.701843554E-3,-1.357953157E-2,3.133738413E-3,1.441969625E-2
3.029863000E0,-4.312708974E-3,-1.296866592E-2,-5.314536393E-4,1.367728765E-2
3.039914000E0,-4.923574626E-3,-1.785558835E-2,7.941201329E-5,1.852214698E-2
3.050056000E0,-3.701843554E-3,-1.419039723E-2,1.912007108E-3,1.478941481E-2
3.059936000E0,-6.145305000E-3,-2.518597245E-2,4.039651901E-2,4.799975760E-2
3.070027000E0,-6.145305000E-3,-3.129462153E-2,1.411892921E-1,1.447464483E-1
3.080076000E0,-1.258382807E-3,-2.274250984E-2,2.596971393E-1,2.606940917E-1
3.089901000E0,7.904595695E-3,4.703681916E-4,3.470508754E-1,3.471412018E-1
3.099983000E0,1.523497887E-2,2.612670884E-2,3.665985763E-1,3.678440235E-1
3.109893000E0,1.218065247E-2,2.307238244E-2,3.128424287E-1,3.139284764E-1
3.119901000E0,7.904595695E-3,1.207680814E-2,2.096062005E-1,2.101025730E-1
3.129997000E0,1.185078290E-3,-4.416553304E-3,1.014830396E-1,1.015860112E-1
3.139934000E0,-6.475173868E-4,-7.470878772E-3,5.200295895E-2,5.254085123E-2
3.150054000E0,4.850269761E-3,1.207680814E-2,3.612045944E-2,3.839351510E-2
3.160134000E0,1.795943594E-3,3.524694592E-3,1.046412066E-2,1.118689888E-2
3.169905000E0,5.742129870E-4,2.302964218E-3,7.941201329E-5,2.374799152E-3
3.180129000E0,-1.869247993E-3,-5.638283677E-3,-5.314536393E-4,5.963788549E-3
3.189985000E0,-6.145305000E-3,-2.335337549E-2,7.941201329E-5,2.414852432E-2
3.199955000E0,3.017673967E-3,1.024421211E-2,1.290758140E-2,1.675278770E-2
3.209913000E0,-7.367035374E-3,-2.885116264E-2,4.345083982E-2,5.267483533E-2
3.219897000E0,-7.367035374E-3,-3.068375960E-2,1.474017836E-2,3.482871188E-2
3.229942000E0,6.072000600E-3,1.268767379E-2,7.941201329E-5,1.406600739E-2
3.239933000E0,-1.258382807E-3,-1.113607083E-2,6.902776659E-4,1.122818258E-2
3.250001000E0,-3.701843554E-3,-1.724472269E-2,-5.314536393E-4,1.764558158E-2
3.259941000E0,-3.665219992E-5,-8.081744425E-3,-6.029240787E-3,1.008303926E-2
3.269894000E0,-8.588765748E-3,-3.801413998E-2,-5.550932884E-2,6.782423847E-2
3.279911000E0,-7.977901027E-3,-3.007289395E-2,-1.550803483E-1,1.581706049E-1
3.289940000E0,3.628539387E-3,1.757459529E-2,-1.984517872E-1,1.992614979E-1
3.299949000E0,-6.145305000E-3,-5.634009838E-2,-1.587455422E-1,1.685589470E-1
3.309914000E0,-6.756169721E-3,-6.733567268E-2,-1.300348788E-1,1.465906148E-1
3.319885000E0,-4.312708974E-3,-7.527691871E-2,-1.196501777E-1,1.414262315E-1
3.330015000E0,-1.347568724E-2,-1.113179699E-1,-4.878980666E-2,1.222854439E-1
3.339925000E0,-3.701843554E-3,-7.772038132E-2,1.840536855E-2,7.995573094E-2
3.350057000E0,-9.810496122E-3,-9.421374649E-2,3.306613117E-2,1.003286843E-1
3.359925000E0,-1.258382807E-3,-7.222259790E-2,-5.314536393E-4,7.223551493E-2
3.370025000E0,-3.701843554E-3,-8.810508996E-2,-5.917451531E-2,1.061971458E-1
3.379974000E0,-3.701843554E-3,-9.360288084E-2,-7.139182091E-2,1.177794339E-1
3.389870000E0,-1.869247993E-3,-8.199644089E-2,-5.245500058E-2,9.735726728E-2
3.399902000E0,6.682865322E-3,-1.155940294E-1,-6.589403749E-2,1.332241138E-1
3.409880000E0,4.516737536E-2,-1.296439320E-1,-5.550932884E-2,1.480841872E-1
3.420013000E0,2.449203134E-1,-9.421374649E-2,-4.329202324E-2,2.659631350E-1
3.429872000E0,3.457130790E-1,-4.717712104E-2,-4.390288517E-2,3.516684192E-1
3.439940000E0,4.330668151E-1,-2.762943134E-2,-6.833749264E-2,4.392951909E-1
3.449921000E0,5.375248194E-1,-1.113607083E-2,-1.257588267E-1,5.521523576E-1
3.459973000E0,6.719151735E-1,1.390940417E-2,-1.905105412E-1,6.985397185E-1
3.470164000E0,8.148576021E-1,4.017661139E-2,-2.186103463E-1,8.446286494E-1
3.480121000E0,9.400849938E-1,8.354803920E-2,-2.125016898E-1,9.674177167E-1
3.490056000E0,1.035990834E0,1.629605293E-1,-1.770714968E-1,1.063572968E0
3.500011000E0,1.087914348E0,1.806756109E-1,-1.611890048E-1,1.114532727E0
3.510101000E0,1.094022989E0,2.014450282E-1,-1.581346840E-1,1.123598228E0
3.519935000E0,1.053095102E0,2.008341700E-1,-1.483608335E-1,1.082291363E0
3.529980000E0,9.510805607E-1,1.739560962E-1,-1.300348788E-1,9.755634403E-1
3.540193000E0,7.873686552E-1,1.232542843E-1,-1.007133573E-1,8.032958348E-1
3.549994000E0,5.454660654E-1,-8.081744425E-3,-4.817894101E-2,5.476492979E-1
3.559995000E0,2.876808643E-1,-1.137614325E-1,3.978565335E-2,3.119051802E-1
3.570114000E0,6.227160245E-2,-2.365453392E-1,1.344697773E-1,2.791300253E-1
3.580267000E0,-1.215988398E-1,-2.976318598E-1,2.254886925E-1,3.927036443E-1
3.589934000E0,-2.712608278E-1,-3.361163735E-1,2.939055860E-1,5.224338683E-1
3.599900000E0,-3.763296604E-1,-3.855964541E-1,3.348335624E-1,6.343675222E-1
3.609874000E0,-3.427320719E-1,-3.544423282E-1,3.366661668E-1,5.970249115E-1
3.619879000E0,-1.319835484E-1,-2.267715037E-1,2.346516848E-1,3.520033879E-1
3.630059000E0,1.465710104E-1,-2.243280411E-1,1.100351587E-1,2.896789037E-1
3.639914000E0,3.060068190E-1,-3.293968737E-1,1.840536855E-2,4.499791454E-1
3.649912000E0,3.646498919E-1,-5.670234561E-1,-9.888076037E-2,6.813681444E-1
3.659906000E0,3.945823014E-1,-5.957341194E-1,-4.390288517E-2,7.159062766E-1
3.669845000E0,4.471167028E-1,-5.572496057E-1,3.856392205E-2,7.154911914E-1
3.679948000E0,4.892663956E-1,-5.340366960E-1,7.704842836E-2,7.283634112E-1
3.689888000E0,5.143119097E-1,-5.108238459E-1,7.399410754E-2,7.286514049E-1
3.699904000E0,5.430225730E-1,-4.582894444E-1,5.200295895E-2,7.124654640E-1
3.709905000E0,5.925026536E-1,-3.574966788E-1,9.242391214E-3,6.920611907E-1
3.719975000E0,6.468696594E-1,-2.945775390E-1,-5.314536393E-4,7.107858786E-1
3.729845000E0,6.884084940E-1,-3.440576196E-1,3.550959378E-2,7.704173099E-1
3.739928000E0,7.403320670E-1,-4.448503852E-1,4.955949634E-2,8.651240248E-1
3.749859000E0,8.020294309E-1,-5.224303007E-1,6.849631667E-2,9.596230367E-1
3.759995000E0,8.631159663E-1,-5.884037018E-1,7.521583140E-2,1.047303924E0
3.769959000E0,9.211481810E-1,-6.012318730E-1,6.483112276E-2,1.101905990E0
3.779938000E0,9.883433580E-1,-5.774081349E-1,5.933333933E-2,1.146186369E0
3.789919000E0,1.051262498E0,-5.816842318E-1,2.023796551E-2,1.201631791E0
3.799968000E0,1.099520802E0,-6.091731191E-1,-4.196645692E-3,1.257002584E0
3.809893000E0,1.097077370E0,-6.494902372E-1,-1.030529756E-2,1.274959812E0
3.820220000E0,1.076307893E0,-6.763682961E-1,-8.472701535E-3,1.271213805E0
3.830056000E0,1.054316759E0,-6.775900722E-1,8.020659909E-3,1.253306214E0
3.839942000E0,1.039045215E0,-6.678162217E-1,-1.458135433E-2,1.235235233E0
3.849946000E0,1.050040722E0,-6.268882155E-1,-3.657250106E-2,1.223483510E0
3.860168000E0,1.097688198E0,-6.012318730E-1,-6.039624661E-2,1.253015104E0
3.869932000E0,1.160607338E0,-6.000101566E-1,-9.399383515E-2,1.309907028E0
3.879977000E0,1.331038713E0,-6.238338947E-1,-2.186103463E-1,1.486143758E0
3.890016000E0,1.407396913E0,-6.452142000E-1,-2.864163816E-1,1.574516363E0
3.899968000E0,1.443437934E0,-6.873639226E-1,-3.743809760E-1,1.641993711E0
3.909952000E0,1.452600956E0,-6.788117886E-1,-4.415761530E-1,1.663076811E0
3.919965000E0,1.473981261E0,-5.676342845E-1,-4.366892278E-1,1.638757737E0
3.929927000E0,1.518574357E0,-4.253027141E-1,-3.945395350E-1,1.625611245E0
3.939936000E0,1.547895908E0,-3.410032988E-1,-3.401725292E-1,1.621105284E0
3.949897000E0,1.565611005E0,-3.141252398E-1,-2.552622557E-1,1.617087290E0
3.959988000E0,1.595543385E0,-4.136962593E-1,-1.837910265E-1,1.658518142E0
3.969892000E0,1.596154213E0,-5.089912415E-1,-2.717556059E-1,1.697242312E0
3.979939000E0,1.583326101E0,-5.548061132E-1,-4.996083677E-1,1.750525603E0
3.989834000E0,1.560113192E0,-5.743538141E-1,-6.541572809E-1,1.786548970E0
3.999834000E0,1.575384855E0,-5.297606587E-1,-7.689999342E-1,1.831350512E0
4.009996000E0,1.637693048E0,-4.735610485E-1,-8.520776033E-1,1.905868523E0
4.019838000E0,1.736653209E0,-4.320222139E-1,-8.288646936E-1,1.972213031E0
4.029814000E0,1.844776392E0,-4.149180055E-1,-7.934345603E-1,2.050584134E0
4.039842000E0,1.878373981E0,-4.772262573E-1,-8.508558869E-1,2.116598557E0
4.049885000E0,1.908306360E0,-5.034934282E-1,-9.033902884E-1,2.170542054E0
4.059839000E0,1.948012590E0,-3.397815824E-1,-9.828027487E-1,2.208190621E0
4.069850000E0,1.949234366E0,-7.161173224E-2,-1.074432492E0,2.226892013E0
4.079836000E0,1.992605805E0,1.153130382E-1,-1.106197596E0,2.281983373E0
4.089915000E0,2.020705700E0,3.089573085E-1,-1.062826157E0,2.303976038E0
4.099858000E0,1.995660186E0,4.506780505E-1,-1.031061172E0,2.291038503E0
4.109892000E0,1.999325275E0,3.340027928E-1,-9.198836684E-1,2.225993124E0
4.119875000E0,2.001157761E0,2.185492665E-1,-8.893404007E-1,2.200754987E0
4.129880000E0,2.040864229E0,6.400035322E-2,-8.685709834E-1,2.218927309E0
4.139957000E0,2.127607107E0,-1.473590136E-1,-8.245886564E-1,2.286563608E0
4.149883000E0,2.213738918E0,-2.096672803E-1,-7.268502116E-1,2.339425484E0
4.159980000E0,2.315142632E0,-2.646451592E-1,-6.517137885E-1,2.419639090E0
4.169877000E0,2.404329062E0,-3.892616630E-1,-6.144509912E-1,2.511946038E0
4.179976000E0,2.442202568E0,-4.216375053E-1,-6.022337079E-1,2.550454275E0
4.189855000E0,2.469080687E0,-2.866362929E-1,-6.608767509E-1,2.572018251E0
4.199867000E0,2.475800276E0,4.384180158E-2,-7.757194638E-1,2.594850631E0
4.210022000E0,2.486795902E0,4.054740369E-1,-8.856751919E-1,2.670764610E0
4.219898000E0,2.484352350E0,6.821959615E-1,-9.058337212E-1,2.730921577E0
4.229933000E0,2.466026306E0,8.605686426E-1,-8.435254693E-1,2.744703873E0
4.239945000E0,2.466637135E0,9.314290285E-1,-7.512848377E-1,2.741584888E0
4.249875000E0,2.426930904E0,7.481694221E-1,-7.158546448E-1,2.638597918E0
4.259878000E0,2.423876762E0,5.777380466E-1,-6.297226548E-1,2.570118758E0
4.270011000E0,2.378672600E0,3.669895232E-1,-5.484775901E-1,2.468520268E0
4.279958000E0,2.331635952E0,1.482997537E-1,-4.806715250E-1,2.385280727E0
4.289901000E0,2.333468676E0,-9.177028388E-2,-3.835439682E-1,2.366559490E0
4.300091000E0,2.285821199E0,-2.786950469E-1,-3.206248283E-1,2.324962315E0
4.309979000E0,2.214960814E0,-2.548713088E-1,-2.888598442E-1,2.248210577E0
4.320001000E0,2.175254583E0,-1.479698867E-1,-2.540405393E-1,2.195031705E0
4.329975000E0,2.183806658E0,7.927198708E-2,-8.971778303E-2,2.187085926E0
4.339990000E0,2.170978546E0,2.796357870E-1,-8.472701535E-3,2.188930288E0
4.349912000E0,2.142878771E0,4.867191017E-1,4.711603373E-2,2.197963792E0
4.360001000E0,2.131272316E0,6.974676251E-1,1.082025543E-1,2.245103687E0
4.369904000E0,2.169145823E0,9.436463118E-1,1.436327547E-1,2.369871796E0
4.379938000E0,2.249169111E0,1.182494640E0,1.314154416E-1,2.544469549E0
4.389973000E0,2.338966370E0,1.275346160E0,9.598525614E-2,2.665799069E0
4.400207000E0,2.397609472E0,1.122629881E0,-8.472701535E-3,2.647432873E0
4.410039000E0,2.442813396E0,9.790765047E-1,-1.459173709E-1,2.635757950E0
4.420457000E0,2.450143814E0,8.666772842E-1,-2.454884052E-1,2.610478650E0
4.429981000E0,2.444035292E0,6.632591486E-1,-2.906924486E-1,2.549063221E0
4.440150000E0,2.456252575E0,4.824430346E-1,-2.809185982E-1,2.518897229E0
4.450081000E0,2.458695889E0,3.382788599E-1,-2.406014949E-1,2.493492959E0
4.459983000E0,2.431206942E0,3.413331807E-1,-1.514151692E-1,2.459715855E0
4.469878000E0,2.386613846E0,4.396824837E-1,-6.029240787E-3,2.426784434E0
4.479940000E0,2.398831129E0,6.883046627E-1,1.906693727E-1,2.502900099E0
4.489986000E0,2.456252575E0,1.114688635E0,4.185221195E-1,2.729627855E0
4.499903000E0,2.488017559E0,1.305278540E0,6.182750463E-1,2.876846793E0
4.509873000E0,2.381726980E0,9.595288038E-1,7.013527155E-1,2.661806636E0
4.520087000E0,2.139213562E0,4.134152830E-1,6.329358220E-1,2.268866372E0
4.529971000E0,1.990162373E0,1.922820508E-1,5.553559065E-1,2.075123813E0
4.539983000E0,1.888147831E0,-6.550307572E-2,5.015997887E-1,1.954736615E0
4.549886000E0,1.727490306E0,-4.705067277E-1,4.374589324E-1,1.843086991E0
4.559883000E0,1.349364758E0,-5.902363062E-1,2.028866857E-1,1.486716904E0
4.569872000E0,1.127009749E0,-5.468648672E-1,8.254621923E-2,1.255398756E0
4.579926000E0,9.083200097E-1,-3.996463716E-1,-1.213789359E-2,9.924262143E-1
4.589907000E0,6.670282483E-1,-2.597582340E-1,-8.177652955E-2,7.204779143E-1
4.600012000E0,4.330668151E-1,-1.534676701E-1,-1.092654690E-1,4.722691339E-1
4.610145000E0,2.052140683E-1,-3.862500563E-2,-9.093951434E-2,2.277601812E-1
4.619997000E0,3.628539387E-3,-1.968818530E-2,-5.489846319E-2,5.843485432E-2
4.629984000E0,-1.490877718E-1,-4.412279278E-2,9.242391214E-3,1.557543140E-1
4.640131000E0,-2.492696643E-1,-5.145317689E-2,9.109833091E-2,2.703362736E-1
4.649891000E0,-3.396777213E-1,-5.389663577E-2,1.662347615E-1,3.819944994E-1
4.659991000E0,-4.532986581E-1,-8.932682127E-2,2.028866857E-1,5.046007944E-1
4.669904000E0,-6.029606462E-1,-9.726806730E-2,2.163257152E-1,6.479347442E-1
4.679923000E0,-7.416270375E-1,-1.033767238E-1,2.218234986E-1,7.809629148E-1
4.689864000E0,-8.576914072E-1,-1.039875895E-1,1.912802458E-1,8.848932711E-1
4.699965000E0,-9.719232321E-1,-7.466605306E-2,1.356915087E-1,9.841859449E-1
4.710296000E0,-1.069661617E0,4.746425431E-3,8.621140569E-2,1.073140676E0
4.719977000E0,-1.139300346E0,1.189782247E-1,3.795305640E-2,1.146124571E0
4.729953000E0,-1.221156240E0,2.686402202E-1,-9.083567187E-3,1.250388996E0
4.739946000E0,-1.365320444E0,4.616736174E-1,-6.711576879E-2,1.442826036E0
4.749951000E0,-1.464891434E0,5.496382117E-1,-1.037676856E-1,1.568048727E0
4.759942000E0,-1.560186505E0,5.838466883E-1,-1.220936403E-1,1.670319054E0
4.769876000E0,-1.694576859E0,5.649098754E-1,-1.245371029E-1,1.790593027E0
4.779920000E0,-1.891886234E0,4.671714306E-1,-1.434739232E-1,1.953987573E0
4.789927000E0,-2.100802183E0,4.977146685E-1,-1.813475639E-1,2.166558710E0
4.799849000E0,-2.185712576E0,4.940494895E-1,-2.112799585E-1,2.250791768E0
4.809899000E0,-2.291392088E0,5.105428100E-1,-2.687012851E-1,2.362907540E0
4.819852000E0,-2.394628286E0,4.909951687E-1,-3.267334998E-1,2.466186462E0
4.829921000E0,-2.504584074E0,4.286869168E-1,-3.725483716E-1,2.568171752E0
4.839840000E0,-2.582774878E0,4.140261412E-1,-3.792679012E-1,2.643101938E0
4.850214000E0,-2.585829258E0,4.207456708E-1,-3.487246335E-1,2.642943197E0
4.859936000E0,-2.557729483E0,4.812213182E-1,-2.864163816E-1,2.618317858E0
4.869861000E0,-2.539403439E0,5.844575167E-1,-2.051713020E-1,2.613858389E0
4.879981000E0,-2.576055288E0,6.046161056E-1,-1.098763347E-1,2.648338025E0
4.889890000E0,-2.680513382E0,5.105428100E-1,-1.702481508E-2,2.728753524E0
4.899984000E0,-2.797799349E0,3.468309641E-1,6.910718232E-2,2.820061829E0
4.909980000E0,-2.874768496E0,2.839118540E-1,1.088134274E-1,2.890802692E0
4.919832000E0,-2.926081181E0,3.834828734E-1,8.010275662E-2,2.952190143E0
4.930074000E0,-3.003050089E0,4.824430346E-1,3.062267415E-2,3.041709859E0
4.940621000E0,-3.065969229E0,6.119464636E-1,3.133738413E-3,3.126444563E0
4.949900000E0,-3.119725466E0,7.359521389E-1,1.596190967E-2,3.205396592E0
4.959971000E0,-3.188753128E0,7.854322195E-1,4.528343678E-2,3.284372219E0
4.970240000E0,-3.260835409E0,7.536672354E-1,-8.472701535E-3,3.346809474E0
4.980001000E0,-3.253504992E0,8.813380599E-1,-8.055479825E-2,3.371726647E0
4.989861000E0,-3.181422710E0,1.042606473E0,-1.422521919E-1,3.350927395E0
4.999918000E0,-3.125223160E0,1.011452317E0,-1.972300559E-1,3.290737802E0
5.009881000E0,-3.095290899E0,9.583070874E-1,-2.393797636E-1,3.249073852E0
5.020569000E0,-3.153322935E0,8.013147116E-1,-3.120727241E-1,3.268476738E0
5.030053000E0,-3.188753128E0,7.194587588E-1,-2.888598442E-1,3.281647060E0
5.040420000E0,-3.230902910E0,6.003400683E-1,-2.595383227E-1,3.296437767E0
5.049986000E0,-3.287102461E0,4.518997967E-1,-2.467101365E-1,3.327179272E0
5.059933000E0,-3.363460779E0,3.804285526E-1,-2.992445529E-1,3.398108533E0
5.069900000E0,-3.415384293E0,3.853154778E-1,-3.872091472E-1,3.458792970E0
5.080096000E0,-3.425158024E0,3.883697987E-1,-4.525717199E-1,3.476688043E0
5.089956000E0,-3.379954100E0,3.706547022E-1,-4.641781747E-1,3.431754071E0
5.099952000E0,-3.336582661E0,3.969219029E-1,-4.373000860E-1,3.388445398E0
5.109935000E0,-3.364682436E0,4.995472729E-1,-4.818932712E-1,3.435528562E0
5.119870000E0,-3.410497189E0,6.412680149E-1,-5.478667021E-1,3.513242614E0
5.130069000E0,-3.415995121E0,7.793235779E-1,-5.613057613E-1,3.548440793E0
5.139952000E0,-3.386673450E0,8.404100537E-1,-5.368711352E-1,3.530449934E0
5.149905000E0,-3.340247869E0,7.634410858E-1,-5.148800015E-1,3.464852022E0
5.159949000E0,-3.303595781E0,5.618555546E-1,-5.374820232E-1,3.393864122E0
5.169895000E0,-3.275496006E0,3.413331807E-1,-6.034554243E-1,3.348065244E0
5.179977000E0,-3.213798761E0,1.935037822E-1,-6.761484146E-1,3.289851497E0
5.190556000E0,-3.103842974E0,8.293718100E-2,-7.708325386E-1,3.199203430E0
5.199922000E0,-2.938298464E0,-3.740327433E-2,-8.575754166E-1,3.061116212E0
5.209978000E0,-2.702504396E0,-1.553002745E-1,-8.606297374E-1,2.840480898E0
5.219880000E0,-2.414175987E0,-2.182193846E-1,-7.763302922E-1,2.545300399E0
5.229899000E0,-2.119739056E0,-2.249388993E-1,-6.651528478E-1,2.233006826E0
5.240071000E0,-1.519258499E0,-3.312721848E-2,-5.051061511E-1,1.601366924E0
5.249961000E0,-1.155793667E0,7.189886179E-3,-4.250828028E-1,1.231505617E0
5.259959000E0,-7.801115513E-1,-5.389663577E-2,-3.389507830E-1,8.522713847E-1
5.269992000E0,-4.630725086E-1,-1.296439320E-1,-2.986336946E-1,5.660616405E-1
5.279929000E0,-2.150612175E-1,-2.212737203E-1,-3.065749407E-1,4.349730806E-1
5.289991000E0,-3.607770056E-2,-3.794878125E-1,-3.255117536E-1,5.012688919E-1
5.300121000E0,7.509976625E-2,-5.529735684E-1,-3.236791492E-1,6.451262930E-1
5.309982000E0,1.471818686E-1,-6.727031469E-1,-2.845837772E-1,7.451039878E-1
5.320442000E0,1.734490693E-1,-7.264592648E-1,-2.308276445E-1,7.817346381E-1
5.329925000E0,1.636752337E-1,-6.794226766E-1,-1.978409290E-1,7.263234739E-1
5.340426000E0,1.337428391E-1,-5.670234561E-1,-1.837910265E-1,6.108861499E-1
5.350053000E0,1.038104370E-1,-4.454612732E-1,-1.459173709E-1,4.801085626E-1
5.359952000E0,9.464745969E-2,-3.617727160E-1,-7.627874613E-2,3.816491672E-1
5.369951000E0,8.853880316E-2,-3.110709190E-1,-6.640106440E-3,3.234939371E-1
5.379884000E0,6.960198283E-2,-2.505952418E-1,4.039651901E-2,2.632000949E-1
5.389975000E0,3.905872256E-2,-1.675175726E-1,5.872247368E-2,1.817582182E-1
5.400411000E0,-4.312708974E-3,-9.848979861E-2,5.383554846E-2,1.123258927E-1
5.409957000E0,-4.951673746E-2,-8.260730654E-2,2.817921154E-2,1.003491024E-1
5.420097000E0,-7.822740823E-2,-1.119288355E-1,1.229671575E-2,1.371087190E-1
5.429896000E0,-8.372519165E-2,-1.430829614E-1,8.631525561E-3,1.660034482E-1
5.439975000E0,-7.761654258E-2,-1.388069093E-1,1.301141456E-3,1.590389220E-1
5.450032000E0,-6.234490499E-2,-1.339199841E-1,-2.435519919E-2,1.497151464E-1
5.459986000E0,-5.257106200E-2,-1.534676701E-1,-7.627874613E-2,1.792609534E-1
5.470075000E0,2.623055317E-2,-7.588778436E-2,-7.017008960E-2,1.066341372E-1
5.480001000E0,3.722612932E-2,-1.480126288E-2,-3.779423237E-2,5.507509498E-2
5.490005000E0,2.317622863E-2,-5.027418025E-3,-2.069000714E-2,3.147203363E-2
5.500512000E0,1.185078290E-3,-1.663385704E-2,-1.946827583E-2,2.563402767E-2
5.510492000E0,-1.897347346E-2,-3.129462153E-2,-2.191173658E-2,4.265524858E-2
5.519992000E0,-4.157548770E-2,-5.878356099E-2,-2.374433354E-2,7.581438911E-2
5.530003000E0,-5.990144610E-2,-1.100962386E-1,-2.252260223E-2,1.273445429E-1
5.539998000E0,-7.211875170E-2,-1.711827666E-1,-1.091616321E-2,1.860747606E-1
5.549973000E0,-8.311432600E-2,-2.487626374E-1,8.020659909E-3,2.624026904E-1
5.559972000E0,-1.026620194E-1,-3.581075370E-1,2.390315570E-2,3.732986193E-1
5.569973000E0,-1.148793250E-1,-4.582894444E-1,3.917478770E-2,4.740897997E-1
5.579898000E0,-1.057163402E-1,-5.352584720E-1,6.666371971E-2,5.496559178E-1
5.590013000E0,-8.128173649E-2,-5.700777769E-1,1.039265022E-1,5.851462298E-1
5.600093000E0,-5.012760311E-2,-5.474757552E-1,1.094242856E-1,5.605498670E-1
5.609981000E0,-1.042136177E-2,-5.810733438E-1,1.558500528E-1,6.017009844E-1
5.619864000E0,1.767843962E-2,-7.154636979E-1,2.065518647E-1,7.448922762E-1
5.629879000E0,5.677381530E-2,-7.600568533E-1,1.833389848E-1,7.839150909E-1
5.639974000E0,1.349645704E-1,-6.867530346E-1,1.295828521E-1,7.117842941E-1
5.649908000E0,2.217074335E-1,-6.201687455E-1,8.987659961E-2,6.647114127E-1
5.660323000E0,2.693549097E-1,-5.939015150E-1,6.605285406E-2,6.554647637E-1
5.669928000E0,2.699657977E-1,-5.767973065E-1,4.589430243E-2,6.385005495E-1
5.679902000E0,2.382007837E-1,-5.731320977E-1,2.940094285E-2,6.213569266E-1
5.689996000E0,1.881098449E-1,-6.384946704E-1,4.772689939E-2,6.673369575E-1
5.699951000E0,8.914966881E-2,-9.579771757E-1,8.132448792E-2,9.655473085E-1
5.709970000E0,6.043900922E-2,-1.189495087E0,1.124786213E-1,1.196328916E0
5.719984000E0,3.111747652E-2,-1.472325683E0,1.497413963E-1,1.480247850E0
5.729957000E0,-1.164309215E-2,-1.774093151E0,1.918911040E-1,1.784478710E0
5.739946000E0,-8.800125122E-2,-2.012941599E0,2.224343717E-1,2.027105116E0
5.750043000E0,-1.869614273E-1,-2.177264452E0,2.499232888E-1,2.199521930E0
5.759939000E0,-2.816455364E-1,-2.306156874E0,2.786339819E-1,2.339940305E0
5.769892000E0,-3.616688848E-1,-2.385569334E0,3.042902946E-1,2.431941203E0
5.779919000E0,-4.111489654E-1,-2.433216810E0,3.238379955E-1,2.488866924E0
5.790030000E0,-4.093163610E-1,-2.513240337E0,3.262814581E-1,2.567172855E0
5.799904000E0,-3.916012645E-1,-2.677562952E0,3.116206825E-1,2.723931417E0
5.809986000E0,-3.958773315E-1,-2.856546402E0,3.006251156E-1,2.899474378E0
5.820158000E0,-4.129815698E-1,-3.046525478E0,2.975707948E-1,3.088756974E0
5.829994000E0,-4.490226209E-1,-3.182137728E0,3.018468618E-1,3.227806277E0
5.840145000E0,-4.893397093E-1,-3.287817478E0,3.195619285E-1,3.339358763E0
5.850063000E0,-5.266024470E-1,-3.396551371E0,3.458291590E-1,3.454485368E0
5.859928000E0,-5.663087368E-1,-3.541326523E0,3.714854717E-1,3.605509753E0
5.869952000E0,-5.840237737E-1,-3.695264578E0,4.008070230E-1,3.762540410E0
5.879898000E0,-5.669195652E-1,-3.819270134E0,4.203546941E-1,3.883931026E0
5.889881000E0,-5.223264098E-1,-3.954271317E0,4.020287395E-1,4.008829459E0
5.899944000E0,-4.502443373E-1,-4.091104984E0,3.611007631E-1,4.131616356E0
5.909912000E0,-3.751079142E-1,-4.154634953E0,3.336118460E-1,4.184852972E0
5.919880000E0,-3.299039006E-1,-4.138141632E0,3.714854717E-1,4.167859667E0
5.929857000E0,-3.463972509E-1,-4.082552910E0,4.380697906E-1,4.120574530E0
5.940091000E0,-3.848817647E-1,-4.120426655E0,5.132062435E-1,4.170063601E0
5.950228000E0,-4.251988530E-1,-4.179680347E0,5.620754361E-1,4.238685016E0
5.959936000E0,-4.520769417E-1,-4.305518627E0,5.669623613E-1,4.366155120E0
5.969863000E0,-4.465791583E-1,-4.433800220E0,5.822340250E-1,4.494108788E0
5.979881000E0,-4.160358906E-1,-4.508326054E0,6.256054044E-1,4.570500168E0
5.989868000E0,-3.793839812E-1,-4.604842663E0,6.475965977E-1,4.665607089E0
6.000151000E0,-3.164648414E-1,-4.708078861E0,6.341575384E-1,4.761125113E0
6.009911000E0,-2.572109103E-1,-4.717852592E0,6.463748217E-1,4.768866841E0
6.019817000E0,-2.394958287E-1,-4.601788044E0,6.989092827E-1,4.660717288E0
6.029875000E0,-2.883650362E-1,-4.557806015E0,7.642718554E-1,4.630427792E0
6.039898000E0,-3.873252273E-1,-4.609729290E0,8.400191069E-1,4.701622811E0
6.049820000E0,-5.046113133E-1,-4.704413414E0,9.212642312E-1,4.820255795E0
6.059896000E0,-5.699738860E-1,-4.805817127E0,1.021446109E0,4.946119756E0
6.069856000E0,-4.288640618E-1,-4.968307495E0,1.105745554E0,5.107903384E0
6.079942000E0,-2.498805523E-1,-5.001904964E0,1.149727821E0,5.138420733E0
6.089895000E0,-1.042136177E-2,-4.876066685E0,1.146673441E0,5.009091225E0
6.099970000E0,1.795577258E-1,-4.635385990E0,1.070926189E0,4.760874621E0
6.109845000E0,3.102828860E-1,-4.353776932E0,9.597487450E-1,4.469090142E0
6.119888000E0,3.945823014E-1,-4.141806602E0,8.681189418E-1,4.250163247E0
6.129909000E0,4.281798899E-1,-4.031239986E0,7.618283629E-1,4.124877732E0
6.139965000E0,4.312342107E-1,-3.896239042E0,6.610355973E-1,3.975375414E0
6.149920000E0,2.919569314E-1,-3.564539433E0,7.441132665E-1,3.653065120E0
6.159958000E0,1.752816737E-1,-3.526054859E0,8.876666427E-1,3.640293752E0
6.169897000E0,1.270233244E-1,-3.530941725E0,1.036717772E0,3.682182522E0
6.179959000E0,9.770178050E-2,-3.581643581E0,1.132012725E0,3.757548295E0
6.189988000E0,8.365188539E-2,-3.543159008E0,1.144840837E0,3.724464248E0
6.200069000E0,6.899111718E-2,-3.278654337E0,1.094749928E0,3.457283824E0
6.209941000E0,2.561968938E-2,-2.794238329E0,9.841833115E-1,2.962607129E0
6.220009000E0,-3.424510360E-2,-2.183372974E0,8.070324063E-1,2.328001627E0
6.229983000E0,1.951103657E-2,-1.662304878E0,6.146098375E-1,1.772394832E0
6.239971000E0,1.105299518E-1,-1.276237965E0,4.240199029E-1,1.349367663E0
6.249906000E0,1.624535024E-1,-1.035557032E0,2.926838696E-1,1.088316752E0
6.259960000E0,1.856663823E-1,-8.223651052E-1,2.126605213E-1,8.694716033E-1
6.269876000E0,1.728382111E-1,-6.452142000E-1,1.637912989E-1,6.877514091E-1
6.280099000E0,1.166386083E-1,-5.138781667E-1,1.393566877E-1,5.450647865E-1
6.289947000E0,4.150218517E-2,-3.800986707E-1,1.301937103E-1,4.039156262E-1
6.299911000E0,-7.977901027E-3,-2.023368925E-1,1.161438003E-1,2.334378875E-1
6.309889000E0,-3.852116317E-2,7.189886179E-3,6.116593629E-2,7.264190414E-2
6.319896000E0,-4.524067789E-2,2.411512733E-1,-2.130087279E-2,2.462811051E-1
6.329903000E0,-2.263866551E-2,4.909951687E-1,-9.704816341E-2,5.010060986E-1
6.339879000E0,-6.145305000E-3,7.298434973E-1,-1.617998779E-1,7.475884535E-1
6.349921000E0,-1.408655290E-2,9.460897446E-1,-2.179994732E-1,9.709830102E-1
6.359963000E0,-2.386039682E-2,1.114688635E0,-2.662578225E-1,1.146295468E0
6.369946000E0,-2.630385756E-2,1.280843973E0,-3.022988737E-1,1.316296997E0
6.379908000E0,-2.447126061E-2,1.517859697E0,-3.694940507E-1,1.562377277E0
6.389887000E0,-3.302337602E-2,1.596661210E0,-3.633854091E-1,1.637823714E0
6.399874000E0,-5.379279330E-2,1.669354200E0,-3.255117536E-1,1.701644796E0
6.410001000E0,-7.456221431E-2,1.747545004E0,-2.986336946E-1,1.774445025E0
6.419879000E0,-8.067087084E-2,1.894763470E0,-2.790859938E-1,1.916905159E0
6.429872000E0,-6.967529655E-2,2.129946470E0,-2.711447477E-1,2.148265833E0
6.439895000E0,-5.257106200E-2,2.387731552E0,-2.986336946E-1,2.406908342E0
6.449925000E0,-4.157548770E-2,2.635742903E0,-3.725483716E-1,2.662266226E0
6.459862000E0,-2.569299191E-2,2.883754253E0,-4.544043243E-1,2.919448923E0
6.469834000E0,-2.935818210E-2,3.104887486E0,-5.325950980E-1,3.150372318E0
6.479923000E0,-4.462981597E-2,3.286925316E0,-6.034554243E-1,3.342159227E0
6.489828000E0,-6.112317368E-2,3.448193789E0,-6.272791624E-1,3.505318187E0
6.499881000E0,-7.761654258E-2,3.571588516E0,-6.095641255E-1,3.624063642E0
6.509836000E0,-1.124358624E-1,3.679100752E0,-5.796316862E-1,3.726177271E0
6.519984000E0,-1.606942117E-1,3.773784876E0,-5.564188361E-1,3.817967632E0
6.530005000E0,-2.150612175E-1,3.856862545E0,-5.338168144E-1,3.899564131E0
6.540182000E0,-2.688173652E-1,3.936885834E0,-5.325950980E-1,3.981832541E0
6.550066000E0,-3.109670579E-1,4.036457062E0,-5.435906649E-1,4.084749311E0
6.560182000E0,-3.256278336E-1,4.192227840E0,-5.362602472E-1,4.238912927E0
6.569931000E0,-3.030258119E-1,4.365102768E0,-5.307624936E-1,4.407681436E0
6.579972000E0,-2.682065070E-1,4.511099339E0,-5.448123813E-1,4.551787836E0
6.589924000E0,-2.443827540E-1,4.630828857E0,-5.686361194E-1,4.672006622E0
6.599955000E0,-2.462153435E-1,4.814699650E0,-5.845186114E-1,4.856296605E0
6.609958000E0,-2.517131269E-1,5.371197701E0,-7.390675545E-1,5.427646367E0
6.619918000E0,-1.625268161E-1,5.672354221E0,-8.697926998E-1,5.740954339E0
6.629958000E0,-2.263866551E-2,5.943578243E0,-1.014567733E0,6.029592236E0
6.639952000E0,1.099190861E-1,6.137833595E0,-1.137351632E0,6.243288571E0
6.649953000E0,2.125444561E-1,6.236182690E0,-1.246696591E0,6.363128325E0
6.659981000E0,2.748526931E-1,6.212358952E0,-1.373756528E0,6.368371436E0
6.670490000E0,3.108937442E-1,6.132946491E0,-1.427512646E0,6.304560249E0
6.679913000E0,2.882917523E-1,6.151272774E0,-1.370091319E0,6.308598822E0
6.689907000E0,1.667295545E-1,6.118286133E0,-1.245474815E0,6.245993233E0
6.699913000E0,2.012190223E-2,5.872717857E0,-1.111084461E0,5.976933043E0
6.709899000E0,-9.777509421E-2,5.568507195E0,-9.595898986E-1,5.651428591E0
6.719917000E0,-2.211698741E-1,5.243526936E0,-7.641130090E-1,5.303523313E0
6.729999000E0,-3.488407135E-1,4.941148758E0,-5.887947083E-1,4.988318364E0
6.739875000E0,-4.337509871E-1,4.610059738E0,-5.087713599E-1,4.658287132E0
6.749996000E0,-4.355835617E-1,4.295464039E0,-4.696759582E-1,4.342964409E0
6.760160000E0,-3.909904063E-1,3.997361660E0,-4.037024975E-1,4.036675544E0
6.770463000E0,-3.738861978E-1,3.623512030E0,-3.401725292E-1,3.658599140E0
6.780007000E0,-3.696101308E-1,3.206290960E0,-2.607600391E-1,3.238040946E0
6.790114000E0,-3.879360855E-1,2.788459301E0,-2.057821751E-1,2.822825886E0
6.799958000E0,-4.172576070E-1,2.421329260E0,-1.666867882E-1,2.462665990E0
6.810000000E0,-4.209228158E-1,2.117118359E0,-1.294240206E-1,2.162433060E0
6.820218000E0,-4.038185775E-1,1.827568293E0,-1.190393120E-1,1.875432128E0
6.829964000E0,-2.920302451E-1,1.209372640E0,-1.477499753E-1,1.252874256E0
6.839984000E0,-2.199481428E-1,9.198225737E-1,-1.361435354E-1,9.555029120E-1
6.849996000E0,-1.460334510E-1,6.785308123E-1,-9.460470080E-2,7.004854612E-1
6.860179000E0,-9.960769117E-2,4.201347828E-1,-6.345057487E-2,4.364182665E-1
6.870107000E0,-6.356664002E-2,1.599061936E-1,-5.184413493E-2,1.797178978E-1
6.880138000E0,-3.424510360E-2,-2.579683438E-2,-4.023769498E-2,5.879860442E-2
6.889949000E0,-1.714087836E-2,-1.461372823E-1,-2.618779428E-2,1.494513819E-1
6.899901000E0,-6.756169721E-3,-2.017260194E-1,-1.702481508E-2,2.025558616E-1
6.909854000E0,4.850269761E-3,-2.078346759E-1,-1.030529756E-2,2.081465272E-1
6.919919000E0,2.867401578E-2,-1.931739151E-1,-7.861836813E-3,1.954486356E-1
6.929933000E0,5.494122207E-2,-1.742370874E-1,-1.335962396E-2,1.831818224E-1
6.939852000E0,6.776938587E-2,-1.491916180E-1,-2.618779428E-2,1.659416437E-1
6.949993000E0,5.249775946E-2,-1.027658582E-1,-4.268115759E-2,1.230386832E-1
6.959964000E0,1.095892210E-2,-2.762943134E-2,-5.917451531E-2,6.622013826E-2
6.969968000E0,-2.630385756E-2,6.522208452E-2,-8.788518608E-2,1.125594028E-1
6.979923000E0,-3.913202882E-2,1.214216873E-1,-1.178175807E-1,1.736534599E-1
6.989950000E0,-3.119077906E-2,1.324172616E-1,-1.318674833E-1,1.894630017E-1
6.999920000E0,-3.701843554E-3,1.140913069E-1,-1.306457520E-1,1.734901797E-1
7.009876000E0,3.417180106E-2,8.293718100E-2,-1.306457520E-1,1.584758672E-1
7.019915000E0,6.776938587E-2,5.544824153E-2,-1.581346840E-1,1.807588875E-1
7.029880000E0,9.709092230E-2,3.467882052E-2,-2.198320776E-1,2.428073519E-1
7.039865000E0,1.282450408E-1,4.323093593E-2,-2.998554111E-1,3.289817196E-1
7.049902000E0,1.618426293E-1,8.599150181E-2,-3.920960724E-1,4.328127829E-1
7.059856000E0,2.107118517E-1,1.415802389E-1,-6.462160349E-1,6.942907260E-1
7.069870000E0,2.168205082E-1,2.014450282E-1,-8.148148060E-1,8.668993022E-1
7.079938000E0,2.174313664E-1,3.266724050E-1,-1.016400337E0,1.089523247E0
7.089882000E0,2.247617543E-1,5.368100405E-1,-1.276628971E0,1.403019742E0
7.099962000E0,2.675223351E-1,7.493911386E-1,-1.525251150E0,1.720333209E0
7.109869000E0,3.096720278E-1,9.528092742E-1,-1.718284488E0,1.989030884E0
7.120011000E0,3.334957659E-1,1.073149681E0,-1.863059640E0,2.175743755E0
7.132273000E0,3.237219155E-1,1.059099793E0,-1.970571876E0,2.260451673E0
7.149945000E0,2.253726274E-1,8.452969790E-1,-2.177655220E0,2.346806780E0
7.159865000E0,1.447384059E-1,7.548889518E-1,-2.382905960E0,2.503806572E0
7.169885000E0,6.043900922E-2,7.707714438E-1,-2.644967079E0,2.755647354E0
7.179923000E0,4.944343492E-2,9.448680282E-1,-2.833724499E0,2.987509796E0
7.189908000E0,9.342572838E-2,1.114688635E0,-2.966893196E0,3.170759271E0
7.199892000E0,1.306885034E-1,1.095140934E0,-3.096396446E0,3.286956663E0
7.209875000E0,1.807794571E-1,9.900720716E-1,-3.165424347E0,3.321571197E0
7.219940000E0,2.058249265E-1,8.520165086E-1,-3.181306839E0,3.299849881E0
7.229984000E0,1.514579207E-1,6.040052176E-1,-3.156872272E0,3.217701719E0
7.239889000E0,5.188689381E-2,2.545903027E-1,-3.106781244E0,3.117627010E0
7.249902000E0,-5.501452461E-2,-1.021549925E-1,-3.072572708E0,3.074762639E0
7.259856000E0,-1.325944066E-1,-4.149180055E-1,-3.024925232E0,3.056126779E0
7.269867000E0,-1.649702787E-1,-6.519337296E-1,-3.013929605E0,3.088042171E0
7.279905000E0,-1.570290178E-1,-8.339715600E-1,-3.090898752E0,3.205280295E0
7.289988000E0,-7.456221431E-2,-8.608496189E-1,-3.454363585E0,3.560793362E0
7.299848000E0,-3.913202882E-2,-6.659836173E-1,-3.688935757E0,3.748774801E0
7.309943000E0,-1.530828420E-2,-4.081984758E-1,-3.855701923E0,3.877279673E0
7.320129000E0,-2.752558701E-2,-2.560930252E-1,-3.941223145E0,3.949630511E0
7.329961000E0,-6.295577437E-2,-2.237171829E-1,-4.002309799E0,4.009051825E0
7.340111000E0,-8.433605731E-2,-2.347127497E-1,-4.075613499E0,4.083237445E0
7.349989000E0,-6.601010263E-2,-1.980608404E-1,-4.155025959E0,4.160267558E0
7.359914000E0,-2.080607042E-2,-1.339199841E-1,-4.240547180E0,4.242712321E0
7.369925000E0,3.478266671E-2,-1.247570068E-1,-4.340729237E0,4.342660987E0
7.379897000E0,9.953437746E-2,-2.469300628E-1,-4.447630405E0,4.455591742E0
7.390055000E0,1.746708006E-1,-3.837638795E-1,-4.498943329E0,4.518658615E0
7.399990000E0,2.082683891E-1,-4.338548183E-1,-4.442743301E0,4.468732904E0
7.409928000E0,1.410732120E-1,-4.442395270E-1,-4.288194656E0,4.313451497E0
7.419884000E0,-6.845356524E-2,-4.472938478E-1,-4.062174320E0,4.087299583E0
7.430012000E0,-3.787730932E-1,-4.949413538E-1,-3.838597775E0,3.888864728E0
7.439877000E0,-6.634362936E-1,-5.199868083E-1,-3.655338287E0,3.751270717E0
7.449912000E0,-8.326459527E-1,-4.210266471E-1,-3.494069815E0,3.616501983E0
7.459912000E0,-8.558588624E-1,-2.438757420E-1,-3.391444445E0,3.506260856E0
7.469831000E0,-7.911071181E-1,-6.672480702E-2,-3.377394438E0,3.469451810E0
7.479971000E0,-6.854274273E-1,6.461121887E-2,-3.433594227E0,3.501935848E0
7.489860000E0,-5.656978488E-1,7.682852447E-2,-3.536219597E0,3.582005823E0
7.499889000E0,-4.930049181E-1,8.049371839E-2,-3.591808319E0,3.626378371E0
7.509907000E0,-4.404704869E-1,1.501323581E-1,-3.558821440E0,3.589117442E0
7.519888000E0,-4.881179929E-1,-8.260730654E-2,-3.448254824E0,3.483610838E0
7.529991000E0,-5.027787089E-1,-7.833124697E-2,-3.252778053E0,3.292337662E0
7.539842000E0,-4.716246128E-1,-5.145317689E-2,-3.026757956E0,3.063713584E0
7.549923000E0,-3.891578019E-1,-2.640770003E-2,-2.807457209E0,2.834423599E0
7.559911000E0,-2.743151486E-1,-4.839884862E-2,-2.579604626E0,2.594600407E0
7.569881000E0,-1.655811369E-1,-1.204809546E-1,-2.326706409E0,2.335700214E0
7.579928000E0,-4.951673746E-2,-1.717936248E-1,-2.037766933E0,2.045595031E0
7.590029000E0,5.738468096E-2,-2.060020864E-1,-1.709121585E0,1.722447809E0
7.599923000E0,1.270233244E-1,-2.829711139E-1,-1.326109052E0,1.361900434E0
7.609898000E0,1.508470625E-1,-4.399634600E-1,-9.076663256E-1,1.019892563E0
7.619939000E0,1.673404276E-1,-5.780190229E-1,-5.295407772E-1,8.015748526E-1
7.629925000E0,1.954402179E-1,-6.446033120E-1,-1.819584221E-1,6.977242836E-1
7.639870000E0,2.424768507E-1,-6.421598792E-1,1.405784190E-1,7.006615627E-1
7.649942000E0,3.121154904E-1,-6.030644774E-1,3.922549188E-1,7.841981667E-1
7.659867000E0,4.110756516E-1,-4.882218242E-1,6.005599499E-1,8.763652175E-1
7.670215000E0,5.039272308E-1,-3.330620527E-1,7.667152882E-1,9.760764919E-1
7.679913000E0,5.198097229E-1,-2.548713088E-1,8.858340383E-1,1.058236021E0
7.690016000E0,4.794925749E-1,-1.974499673E-1,9.719660282E-1,1.101643127E0
7.699963000E0,3.982474804E-1,-1.583545953E-1,1.028165579E0,1.113912784E0
7.709876000E0,3.267762363E-1,-9.482461214E-2,1.070315361E0,1.123098120E0
7.719923000E0,2.821830809E-1,-9.914341383E-3,1.121017098E0,1.156029809E0
7.729926000E0,2.546941638E-1,5.605910718E-2,1.215090394E0,1.242761605E0
7.739846000E0,2.436985821E-1,9.454362094E-2,1.601768136E0,1.622956764E0
7.750045000E0,1.929967552E-1,-1.272004694E-1,1.733714938E0,1.749055515E0
7.759917000E0,1.459601372E-1,-2.322692871E-1,1.808240533E0,1.828930619E0
7.770043000E0,1.294667721E-1,-2.218845785E-1,1.861385822E0,1.879029428E0
7.779963000E0,1.557339877E-1,-1.565220058E-1,1.893761635E0,1.906589978E0
7.789949000E0,2.174313664E-1,-9.303475730E-3,1.924304962E0,1.936572369E0
7.800132000E0,2.889026105E-1,1.794538796E-1,2.002495766E0,2.031171510E0
7.809875000E0,3.243328035E-1,3.395005763E-1,2.163764000E0,2.214119928E0
7.819904000E0,2.504180968E-1,3.205637634E-1,2.349467039E0,2.384421464E0
7.829927000E0,1.459601372E-1,1.476888955E-1,2.508903027E0,2.517481036E0
7.839948000E0,7.265631109E-2,-5.638283677E-3,2.601754427E0,2.602774832E0
7.849866000E0,2.745228447E-2,-1.516350806E-1,2.599921942E0,2.604484772E0
7.859903000E0,6.682865322E-3,-1.736262292E-1,2.551663637E0,2.557572686E0
7.869890000E0,-1.042136177E-2,4.750699177E-2,2.560826540E0,2.561288365E0
7.879940000E0,-1.103222650E-2,3.425548971E-1,2.640239000E0,2.662391321E0
7.889860000E0,-3.090978367E-3,5.355883241E-1,2.747140408E0,2.798864917E0
7.900101000E0,-3.485596925E-2,4.311303794E-1,2.777683735E0,2.811159062E0
7.909870000E0,3.628539387E-3,1.531866789E-1,2.800285816E0,2.804474991E0
7.919925000E0,2.046031952E-1,-3.190548718E-2,2.954834700E0,2.962081790E0
7.929928000E0,4.141299725E-1,-3.805688582E-3,3.167415619E0,3.194376280E0
7.939843000E0,4.972076416E-1,2.527576983E-1,3.332960129E0,3.379308378E0
7.950082000E0,5.399682522E-1,3.352245092E-1,3.477124453E0,3.534732754E0
7.959920000E0,4.807142913E-1,5.032124519E-1,3.668325186E0,3.733753965E0
7.969904000E0,9.098226577E-2,3.230072260E-1,3.609071255E0,3.624638846E0
7.979928000E0,3.844786063E-2,2.533685863E-1,3.654275417E0,3.663250292E0
7.989882000E0,6.532592326E-2,1.440237015E-1,3.865634680E0,3.868868282E0
7.999909000E0,1.123625487E-1,-2.701856568E-2,4.136248112E0,4.137862224E0
8.009895000E0,1.887207031E-1,8.232631534E-2,4.478332520E0,4.483063158E0
8.019897000E0,2.467529029E-1,3.963110447E-1,4.930983543E0,4.953034236E0
8.029891000E0,1.820011884E-1,4.720583260E-1,5.116686821E0,5.141638603E0
8.039988000E0,3.844786063E-2,2.686402202E-1,5.018948078E0,5.026279500E0
8.049929000E0,-5.257106200E-2,2.222144604E-1,4.955418110E0,4.960676529E0
8.059942000E0,-1.057163402E-1,4.745017886E-1,4.930983543E0,4.954889161E0
8.069856000E0,-1.527529657E-1,6.046161056E-1,4.797814846E0,4.838173354E0
8.079934000E0,-1.906266063E-1,4.451802671E-1,4.578514576E0,4.604054702E0
8.089846000E0,-1.924592108E-1,2.417621464E-1,4.447178364E0,4.457901399E0
8.099936000E0,-1.655811369E-1,-1.480126288E-2,4.398920059E0,4.402060186E0
8.109882000E0,-4.707327485E-2,-1.137614325E-1,4.324394703E0,4.326146912E0
8.119855000E0,1.771142632E-1,5.483737588E-2,4.226655960E0,4.230720648E0
8.129943000E0,3.768672049E-1,3.010160625E-1,4.104483128E0,4.132725651E0
8.139844000E0,5.204205513E-1,6.522635818E-1,4.007355213E0,4.093309313E0
8.149884000E0,5.735658407E-1,8.959988356E-1,3.957264423E0,4.097771761E0
8.159890000E0,5.057597756E-1,8.660663962E-1,3.824095964E0,3.953425590E0
8.169844000E0,3.762563467E-1,8.062016368E-1,3.639614582E0,3.746775177E0
8.179919000E0,2.235400230E-1,7.194587588E-1,3.459409237E0,3.540494784E0
8.189860000E0,5.127602816E-2,6.766982079E-1,3.263932467E0,3.333737368E0
8.199971000E0,-1.881831437E-1,5.343666077E-1,2.874811172E0,2.930102361E0
8.209895000E0,-1.704680622E-1,2.949074209E-1,2.759968519E0,2.780909199E0
8.219844000E0,-1.069380715E-1,-1.907731965E-2,2.690330029E0,2.692522118E0
8.230290000E0,-3.424510360E-2,-3.373381197E-1,2.606641531E0,2.628602253E0
8.239850000E0,2.623055317E-2,-6.262773871E-1,2.496074915E0,2.573577547E0
8.249871000E0,4.272391647E-2,-8.419128060E-1,2.325643301E0,2.473713660E0
8.259902000E0,5.433035642E-2,-8.926146030E-1,2.098401546E0,2.281008914E0
8.269832000E0,9.464745969E-2,-7.551699281E-1,1.822290421E0,1.974837244E0
8.279948000E0,1.306885034E-1,-5.334258676E-1,1.503418803E0,1.600590747E0
8.289846000E0,1.471818686E-1,-3.214556277E-1,1.212036014E0,1.262548027E0
8.299927000E0,1.581774503E-1,-1.699610353E-1,1.002509236E0,1.029044036E0
8.309933000E0,1.685621589E-1,-8.016384393E-2,8.687297702E-1,8.885554889E-1
8.319843000E0,1.655078232E-1,-4.351192713E-2,7.722131014E-1,7.909482924E-1
8.329887000E0,1.190820709E-1,-9.238114953E-2,6.866919398E-1,7.030367249E-1
8.339817000E0,3.356093541E-2,-2.096672803E-1,6.017816663E-1,6.381440893E-1
8.349905000E0,-6.295577437E-2,-3.092383146E-1,5.064867139E-1,5.967583733E-1
8.359903000E0,-1.356487423E-1,-3.318403363E-1,3.928657770E-1,5.318478249E-1
8.369840000E0,-1.808527708E-1,-2.927449346E-1,2.639732063E-1,4.336924890E-1
8.379950000E0,-2.022330463E-1,-2.053912133E-1,1.295828521E-1,3.160308072E-1
8.389947000E0,-1.863505542E-1,-7.222259790E-2,7.409794256E-3,1.999938443E-1
8.399965000E0,-1.460334510E-1,6.583295017E-2,-9.032864869E-2,1.838994587E-1
8.409897000E0,-1.136575937E-1,1.776212901E-1,-1.587455422E-1,2.639460522E-1
8.419867000E0,-1.093815342E-1,2.533685863E-1,-1.941757351E-1,3.374376634E-1
8.429959000E0,-1.894048750E-1,1.397476494E-1,-2.509862185E-1,3.440896599E-1
8.439987000E0,-1.942918003E-1,8.721323311E-2,-2.387688905E-1,3.199469249E-1
8.449999000E0,-1.680245996E-1,1.293629259E-1,-2.320493758E-1,3.143468553E-1
8.459850000E0,-1.307618171E-1,2.289339751E-1,-2.326602340E-1,3.516250876E-1
8.469873000E0,-9.594249725E-2,2.997943461E-1,-2.186103463E-1,3.832389545E-1
8.479954000E0,-5.929058045E-2,3.193420172E-1,-1.746280491E-1,3.687677486E-1
8.489916000E0,-3.485596925E-2,2.808575034E-1,-1.110980660E-1,3.040372610E-1
8.499910000E0,-1.347568724E-2,2.313774377E-1,-5.550932884E-2,2.383241457E-1
8.509880000E0,1.584584452E-2,1.867842674E-1,-2.557692863E-2,1.891920522E-1
8.520008000E0,6.776938587E-2,1.519649476E-1,-4.196645692E-3,1.664441251E-1
8.529880000E0,1.331319660E-1,9.820880741E-2,2.634661831E-2,1.675208480E-1
8.539880000E0,1.789468676E-1,2.734844014E-2,3.612045944E-2,1.845930827E-1
8.549911000E0,1.954402179E-1,-5.756182969E-2,1.718363725E-2,2.044639831E-1
8.560424000E0,2.174313664E-1,-1.015441269E-1,-7.861836813E-3,2.401029306E-1
8.569883000E0,2.382007837E-1,-9.665720165E-2,-3.168558329E-2,2.590100465E-1
8.579936000E0,2.333138734E-1,-7.222259790E-2,-5.612019449E-2,2.506011640E-1
8.589946000E0,2.186530977E-1,-2.518597245E-2,-7.566788048E-2,2.327426444E-1
8.599982000E0,2.180422395E-1,1.207680814E-2,-8.849605173E-2,2.356264389E-1
8.609884000E0,2.192639709E-1,2.246151865E-2,-9.338296950E-2,2.393775005E-1
8.619920000E0,2.265943438E-1,7.800751366E-3,-9.460470080E-2,2.456743734E-1
8.629924000E0,2.382007837E-1,1.390940417E-2,-9.704816341E-2,2.575877150E-1
8.639975000E0,2.210965604E-1,1.635286584E-2,-1.159849837E-1,2.502071575E-1
8.649966000E0,6.899111718E-2,-2.188302577E-1,-1.544694901E-1,2.765994925E-1
8.660002000E0,-5.562539026E-2,-1.064310521E-1,-1.324783415E-1,1.788078965E-1
8.669912000E0,-1.319835484E-1,-1.362226903E-3,-8.727432042E-2,1.582350142E-1
8.679974000E0,-1.582507491E-1,-1.602299139E-2,-6.650490314E-2,1.724034164E-1
8.690013000E0,-1.661919951E-1,-4.778798670E-2,-4.634634778E-2,1.790292012E-1
8.699937000E0,-2.022330463E-1,-7.955297828E-2,-3.412904218E-2,2.199810739E-1
8.709880000E0,-2.529348731E-1,-1.455264241E-1,-4.207029194E-2,2.948285936E-1
8.719852000E0,-2.963063121E-1,-2.188302577E-1,-4.023769498E-2,3.705444431E-1
8.730151000E0,-3.329582214E-1,-2.725864053E-1,-2.191173658E-2,4.308650018E-1
8.740004000E0,-3.384560049E-1,-2.811385095E-1,1.301141456E-3,4.399920701E-1
8.749980000E0,-3.152431250E-1,-1.992825717E-1,1.168585010E-2,3.731331268E-1
8.759898000E0,-2.871433198E-1,-8.566162735E-2,1.912007108E-3,2.996545616E-1
8.769923000E0,-2.785912156E-1,-2.824029699E-2,-3.412904218E-2,2.820910692E-1
8.779978000E0,-2.932519615E-1,-6.249149330E-3,-6.833749264E-2,3.011739990E-1
8.789938000E0,-3.384560049E-1,1.452026889E-2,-8.116566390E-2,3.483549489E-1
8.799950000E0,-4.013751149E-1,3.895488009E-2,-5.978538096E-2,4.076686857E-1
8.809881000E0,-4.728463590E-1,3.895488009E-2,-2.679865807E-2,4.752045139E-1
8.819889000E0,-5.076656342E-1,-5.817269534E-2,2.145969681E-2,5.114381460E-1
8.829965000E0,-5.137742758E-1,-1.369743049E-1,8.010275662E-2,5.377196465E-1
8.839919000E0,-5.076656342E-1,-1.717936248E-1,1.161438003E-1,5.483856562E-1
8.849892000E0,-4.826202095E-1,-1.247570068E-1,1.161438003E-1,5.118358718E-1
8.859891000E0,-4.624616504E-1,-7.222259790E-2,6.238766760E-2,4.722066314E-1
8.869882000E0,-4.380270243E-1,-4.595538974E-2,-1.152702793E-2,4.405819381E-1
8.879987000E0,-4.203119576E-1,-4.473365843E-2,-6.640106440E-3,4.227379010E-1
8.889949000E0,-4.251988530E-1,-3.251635283E-2,1.596190967E-2,4.267389839E-1
8.899944000E0,-3.934338689E-1,3.101363033E-2,2.329229005E-2,3.953410998E-1
8.909931000E0,-3.079127371E-1,1.482997537E-1,3.428786248E-2,3.434803170E-1
8.919861000E0,-2.168938220E-1,2.613098323E-1,4.467257112E-2,3.425221118E-1
8.929955000E0,-1.643594056E-1,3.498852849E-1,5.627901107E-2,3.906418486E-1
8.939960000E0,-1.515312344E-1,3.938675821E-1,5.505727977E-2,4.255874661E-1
8.949929000E0,-1.765767038E-1,3.291158676E-1,9.242391214E-3,3.736067564E-1
8.959919000E0,-2.077308446E-1,2.442056090E-1,-1.030529756E-2,3.207720100E-1
8.969867000E0,-2.535457313E-1,2.057210952E-1,2.756834589E-2,3.276684614E-1
8.979977000E0,-3.366234004E-1,1.812864840E-1,6.238766760E-2,3.873916934E-1
8.989903000E0,-4.276423156E-1,1.788430214E-1,8.315708488E-2,4.709329859E-1
8.999976000E0,-5.143851638E-1,1.611279249E-1,9.048746526E-2,5.465732213E-1
9.009958000E0,-5.815803409E-1,1.189782247E-1,7.032891363E-2,5.977772720E-1
9.019858000E0,-5.870781541E-1,9.698707610E-2,4.406170547E-2,5.966646343E-1
9.029951000E0,-5.137742758E-1,1.513540894E-1,2.268142439E-2,5.360844279E-1
9.039965000E0,-4.355835617E-1,2.032776326E-1,-5.418375134E-3,4.807121736E-1
9.050002000E0,-3.861034811E-1,1.983907074E-1,-3.473990783E-2,4.354786241E-1
9.060195000E0,-3.787730932E-1,1.476888955E-1,-4.940067232E-2,4.095381453E-1
9.069859000E0,-3.818274438E-1,1.379150450E-1,-2.252260223E-2,4.065956519E-1
9.079969000E0,-3.793839812E-1,1.305846572E-1,1.351844706E-2,4.014564812E-1
9.089912000E0,-4.740680754E-1,2.820792496E-1,2.940094285E-2,5.524252516E-1
9.099958000E0,-6.188431382E-1,5.300905108E-1,1.657277159E-2,8.150076295E-1
9.109921000E0,-4.930049181E-1,1.733452380E-1,3.306613117E-2,5.236370784E-1
9.119826000E0,-3.604471385E-1,2.429411188E-2,1.204198673E-1,3.808061029E-1
9.129901000E0,-2.547674477E-1,-1.033767238E-1,1.155329421E-1,2.982298780E-1
9.139871000E0,-1.240423024E-1,-1.546894014E-1,7.032891363E-2,2.103840768E-1
9.149980000E0,5.461134948E-3,-1.418612301E-1,5.688987672E-2,1.529408078E-1
9.159955000E0,1.258015931E-1,-6.305961311E-2,4.955949634E-2,1.491934962E-1
9.169964000E0,2.278160751E-1,4.689612985E-2,2.145969681E-2,2.335806705E-1
9.179967000E0,2.675223351E-1,1.739560962E-1,1.718363725E-2,3.195687728E-1
9.189904000E0,2.015488744E-1,2.136623412E-1,-1.763568074E-2,2.942525481E-1
9.199867000E0,8.670620620E-2,2.423730046E-1,-4.207029194E-2,2.608304986E-1
9.209924000E0,-3.791029751E-2,3.028486669E-1,-4.451375082E-2,3.084412095E-1
9.219844000E0,-1.606942117E-1,3.297267258E-1,-4.023769498E-2,3.690005630E-1
9.230017000E0,-2.914193869E-1,3.040703833E-1,-2.130087279E-2,4.217081742E-1
9.239898000E0,-3.897686899E-1,2.887987792E-1,-2.252260223E-2,4.856249933E-1
9.249934000E0,-3.970990777E-1,2.869661748E-1,-4.329202324E-2,4.918449576E-1
9.259932000E0,-3.390668631E-1,2.900204957E-1,-5.795278400E-2,4.499297175E-1
9.269903000E0,-2.614869773E-1,2.735271454E-1,-5.062240362E-2,3.817789496E-1
9.279962000E0,-1.955135316E-1,2.142731994E-1,-6.833749264E-2,2.980076474E-1
9.289896000E0,-1.411465257E-1,1.843408048E-1,-6.955922395E-2,2.423682316E-1
9.299985000E0,-1.246531606E-1,1.715126336E-1,-4.817894101E-2,2.174309184E-1
9.309915000E0,-1.356487423E-1,1.519649476E-1,-4.940067232E-2,2.096052314E-1
9.319881000E0,-1.600833535E-1,1.867842674E-1,-7.261355221E-2,2.564912681E-1
9.330148000E0,-2.798129320E-1,3.425548971E-1,3.062267415E-2,4.433699162E-1
9.339967000E0,-3.812165558E-1,3.260615468E-1,7.338324189E-2,5.069785942E-1
9.349879000E0,-4.520769417E-1,2.759706080E-1,8.315708488E-2,5.361421812E-1
9.359910000E0,-4.771224260E-1,2.008341700E-1,3.367699683E-2,5.187622899E-1
9.369865000E0,-4.319183826E-1,1.641822606E-1,-4.329202324E-2,4.640942827E-1
9.379924000E0,-3.262386918E-1,1.379150450E-1,-8.971778303E-2,3.653786040E-1
9.389896000E0,-2.058982402E-1,7.866112143E-2,-1.117089316E-1,2.471043155E-1
9.399840000E0,-1.148793250E-1,3.956574574E-2,-8.238739520E-2,1.468005124E-1
9.409934000E0,-1.081598029E-1,1.757459529E-2,-1.458135433E-2,1.105442230E-1
9.419845000E0,-1.698571891E-1,2.062892169E-2,2.573575266E-2,1.730298993E-1
9.429923000E0,-2.303328514E-1,1.018740013E-1,2.573575266E-2,2.531676590E-1
9.439925000E0,-2.578217983E-1,1.873951405E-1,4.355467856E-3,3.187600798E-1
9.449939000E0,-2.779803276E-1,2.350426167E-1,-2.618779428E-2,3.649710876E-1
9.459937000E0,-2.877541780E-1,2.594772279E-1,-2.679865807E-2,3.883929285E-1
9.469839000E0,-2.779803276E-1,2.332100272E-1,-9.083567187E-3,3.629634837E-1
9.480129000E0,-2.535457313E-1,2.020559013E-1,6.798928604E-3,3.242811289E-1
9.489932000E0,-2.089525759E-1,1.843408048E-1,3.184440732E-2,2.804581566E-1
9.499932000E0,-1.588616222E-1,1.721235067E-1,3.978565335E-2,2.375845424E-1
9.509915000E0,-1.173227802E-1,1.336389929E-1,2.268142439E-2,1.792720340E-1
9.519890000E0,-9.105557948E-2,5.300477892E-2,-1.030529756E-2,1.058622893E-1
9.529900000E0,-1.124358624E-1,5.483737588E-2,-1.274875831E-2,1.257437545E-1
9.539848000E0,-1.344270110E-1,7.133073360E-2,-1.030529756E-2,1.525283384E-1
9.549880000E0,-1.393139362E-1,6.033516303E-2,-1.274875831E-2,1.523523402E-1
9.559913000E0,-1.234314293E-1,6.705468148E-2,-1.946827583E-2,1.418120651E-1
9.569859000E0,-9.594249725E-2,7.377419621E-2,-1.946827583E-2,1.225830680E-1
9.579886000E0,-6.051230803E-2,8.904583007E-2,-4.196645692E-3,1.077428007E-1
9.589850000E0,-3.363424167E-2,9.698707610E-2,9.853255004E-3,1.031253692E-1
9.599872000E0,-3.057991341E-2,1.098152474E-1,2.390315570E-2,1.164726599E-1
9.609920000E0,-5.684711784E-2,8.904583007E-2,1.474017836E-2,1.066678373E-1
9.619875000E0,-8.922298253E-2,6.155689433E-2,6.798928604E-3,1.086103921E-1
9.629834000E0,-1.301509589E-1,6.461121887E-2,6.188064814E-3,1.454378694E-1
9.639868000E0,-1.747441143E-1,8.049371839E-2,9.853255004E-3,1.926443116E-1
9.649891000E0,-2.077308446E-1,1.128695756E-1,1.290758140E-2,2.367662361E-1
9.659884000E0,-2.346089035E-1,1.452454329E-1,1.107498631E-2,2.761525461E-1
9.669884000E0,-2.614869773E-1,1.721235067E-1,9.853255004E-3,3.132076428E-1
9.679964000E0,-2.853107154E-1,1.855625361E-1,9.853255004E-3,3.404889804E-1
9.689909000E0,-2.639304399E-1,9.943053871E-2,9.853255004E-3,2.822105522E-1
9.699880000E0,5.461134948E-3,2.246151865E-2,-2.557692863E-2,3.447496328E-2
9.709921000E0,2.928487957E-2,1.275303364E-1,2.023796551E-2,1.324053100E-1
9.719906000E0,-2.080607042E-2,-5.023144558E-2,4.528343678E-2,7.075789947E-2
9.729889000E0,-2.813645266E-2,-8.016384393E-2,6.788545102E-2,1.087489600E-1
9.739900000E0,1.401324850E-2,4.139833897E-2,6.238766760E-2,7.617358250E-2
9.749884000E0,2.989574522E-2,3.651141748E-2,1.962709986E-2,5.110833824E-2
9.759900000E0,3.966958821E-2,5.544824153E-2,1.229671575E-2,6.927765106E-2
9.769918000E0,3.783699498E-2,7.499592751E-2,3.133738413E-3,8.405859652E-2
9.779854000E0,3.417180106E-2,6.277862191E-2,4.355467856E-3,7.160892023E-2
9.789931000E0,4.944343492E-2,1.000414044E-1,8.631525561E-3,1.119260429E-1
9.799909000E0,6.532592326E-2,1.147021726E-1,1.229671575E-2,1.325717687E-1
9.809940000E0,8.853880316E-2,1.409693807E-1,2.695748396E-2,1.686362710E-1
9.819997000E0,9.586919099E-2,1.507432163E-1,3.367699683E-2,1.817926268E-1
9.829935000E0,1.007561088E-1,1.623496562E-1,3.856392205E-2,1.949266026E-1
9.839907000E0,1.050321683E-1,1.776212901E-1,5.078122765E-2,2.125083814E-1
9.849943000E0,9.953437746E-2,1.782321632E-1,6.055507064E-2,2.129335879E-1
9.859908000E0,9.831264615E-2,1.763995588E-1,6.544198841E-2,2.122847959E-1
9.869866000E0,8.120842278E-2,1.330281198E-1,2.390315570E-2,1.576789442E-1
9.880135000E0,9.159313142E-2,1.311955303E-1,3.917478770E-2,1.647307891E-1
9.890002000E0,1.044213027E-1,1.501323581E-1,6.666371971E-2,1.946473347E-1
9.900134000E0,1.215255260E-1,1.562409997E-1,5.200295895E-2,2.046558360E-1
9.909933000E0,1.508470625E-1,1.641822606E-1,1.301141456E-3,2.229626514E-1
9.920131000E0,1.954402179E-1,1.855625361E-1,-6.833749264E-2,2.780293986E-1
9.929999000E0,2.290378064E-1,1.935037822E-1,-8.727432042E-2,3.122800626E-1
9.939931000E0,2.247617543E-1,1.482997537E-1,-6.833749264E-2,2.778141034E-1
9.949937000E0,2.015488744E-1,1.910603195E-1,-5.428759754E-2,2.829719734E-1
9.960473000E0,1.661186963E-1,1.635713875E-1,-2.374433354E-2,2.343390993E-1
9.969990000E0,1.178603396E-1,1.110369787E-1,3.123353980E-2,1.649115044E-1
9.979915000E0,6.471506506E-2,4.078747332E-2,7.277237624E-2,1.055816100E-1
9.989952000E0,3.356093541E-2,1.818546094E-2,1.014830396E-1,1.084244193E-1
1.000011800E1,4.516737536E-2,5.850256607E-2,1.454653442E-1,1.631649729E-1
1.000994500E1,6.960198283E-2,1.006522700E-1,1.760086119E-1,2.143696502E-1
1.002015400E1,1.563448459E-1,2.203818560E-1,1.063699648E-1,2.903901560E-1
1.002997400E1,2.192639709E-1,3.059029877E-1,8.560054749E-2,3.859802852E-1
1.003994800E1,2.504180968E-1,3.291158676E-1,9.720698744E-2,4.248242883E-1
1.005008300E1,2.388116568E-1,3.553830683E-1,1.033156365E-1,4.404568690E-1
1.006015100E1,1.972728223E-1,3.419440389E-1,9.965044260E-2,4.071516951E-1
1.006992300E1,1.673404276E-1,2.942965627E-1,1.143112108E-1,3.573238565E-1
1.008011100E1,1.636752337E-1,2.356534898E-1,1.338589042E-1,3.166075736E-1
1.008992900E1,1.832229197E-1,1.898385882E-1,1.112568900E-1,2.863344608E-1
1.009996700E1,2.412551194E-1,1.977798492E-1,4.161825031E-2,3.147268342E-1
1.010994700E1,3.359392285E-1,2.356534898E-1,-1.753184944E-3,4.103544885E-1
1.012013200E1,4.593340158E-1,1.886168718E-1,-1.030529756E-2,4.966591000E-1
1.012994100E1,6.199916005E-1,6.094602868E-2,1.290758140E-2,6.231136403E-1
1.013995500E1,7.592688799E-1,-1.663385704E-2,1.474017836E-2,7.595940956E-1
1.015002200E1,8.466225863E-1,-3.557068110E-2,-1.946827583E-2,8.475931162E-1
1.015998200E1,8.502877951E-1,3.345709294E-2,-2.740952373E-2,8.513870997E-1
1.017018900E1,7.617123127E-1,1.586844623E-1,-5.062240362E-2,7.797108654E-1
1.017992800E1,6.871867776E-1,2.973508835E-1,-5.184413493E-2,7.505538152E-1
1.018989000E1,6.016656160E-1,3.798176944E-1,-3.535077348E-2,7.123992362E-1
1.020016200E1,5.155336261E-1,3.034595251E-1,-9.083567187E-3,5.982851446E-1
1.020993600E1,4.159625769E-1,1.110369787E-1,7.032891363E-2,4.362341482E-1
1.022007300E1,3.121154904E-1,-4.473365843E-2,1.442436129E-1,3.467324609E-1
1.022990200E1,2.595810592E-1,-1.320873946E-1,1.613478363E-1,3.329602535E-1
1.024019600E1,2.754635811E-1,-5.695096403E-2,1.100351587E-1,3.020452499E-1
1.025011800E1,3.273871243E-1,-8.692610078E-3,5.444641411E-2,3.319974437E-1
1.025991400E1,1.490144581E-1,-3.184012771E-1,2.573575266E-2,3.524868947E-1
1.027002500E1,5.742129870E-4,-4.882218242E-1,1.027047709E-1,4.989079567E-1
1.027995400E1,7.387804240E-2,-4.136962593E-1,1.356915087E-1,4.416047391E-1
1.028996600E1,7.876496017E-2,-4.332439601E-1,1.399675608E-1,4.620553712E-1
1.029985800E1,8.976053447E-2,-4.271352887E-1,1.485196650E-1,4.610418629E-1
1.030994100E1,1.044213027E-1,-3.342837989E-1,2.157148421E-1,4.113178330E-1
1.032014800E1,7.265631109E-2,-2.365453392E-1,2.939055860E-1,3.842045426E-1
1.032994000E1,2.195449732E-2,-2.005043030E-1,2.554211020E-1,3.254595441E-1
1.033991000E1,2.806315012E-2,-1.394177675E-1,5.383554846E-2,1.520628836E-1
1.034996700E1,6.960198283E-2,-4.962057993E-2,-6.406144053E-2,1.068199706E-1
1.035994400E1,6.899111718E-2,2.490497753E-2,-1.025459543E-1,1.260781698E-1
1.037004000E1,3.356093541E-2,3.773314878E-2,-9.704816341E-2,1.094005161E-1
1.037999400E1,2.684141882E-2,1.513113454E-2,-7.566788048E-2,8.170092492E-2
1.038998600E1,3.478266671E-2,1.329853851E-2,-7.994393259E-2,8.819136799E-2
1.040025800E1,4.394564778E-2,1.452026889E-2,-5.612019449E-2,7.274293366E-2
1.040996100E1,3.417180106E-2,-1.419039723E-2,-4.023769498E-2,5.466398685E-2
1.042008000E1,3.417180106E-2,-9.303475730E-3,-2.924212068E-2,4.592785941E-2
1.042996800E1,3.844786063E-2,5.968155805E-3,-4.268115759E-2,5.775411746E-2
1.043991500E1,4.577824101E-2,7.255246490E-2,-4.817894101E-2,9.839063914E-2
1.044990500E1,7.998669147E-2,2.179383934E-1,-5.856364965E-2,2.394258031E-1
1.045993200E1,1.007561088E-1,2.466490567E-1,-5.184413493E-2,2.714320632E-1
1.046999500E1,6.043900922E-2,-1.296866592E-2,-1.013242230E-1,1.186914415E-1
1.047990100E1,5.310862511E-2,-1.241461337E-1,-1.178175807E-1,1.792031553E-1
1.048995900E1,3.966958821E-2,-1.052093208E-1,-1.550803483E-1,1.915531044E-1
1.049987400E1,5.127602816E-2,-2.029905096E-2,-1.526369005E-1,1.622938876E-1
1.050990600E1,4.761083797E-2,-4.656625539E-2,-9.338296950E-2,1.146978074E-1
1.052012300E1,3.966958821E-2,-1.589654535E-1,-1.519221999E-2,1.645432927E-1
1.052991500E1,3.539353237E-2,-2.780841887E-1,2.512488700E-2,2.814512002E-1
1.053993100E1,5.555208400E-2,-3.116817772E-1,-5.314536393E-4,3.165941357E-1
1.055001800E1,4.761083797E-2,-2.267715037E-1,-1.091616321E-2,2.319725617E-1
1.055996100E1,2.623055317E-2,-7.894211262E-2,-1.091616321E-2,8.389911611E-2
1.057000200E1,4.699997231E-2,9.026756138E-2,-6.345057487E-2,1.199300024E-1
1.058010000E1,9.770178050E-2,7.621765882E-2,-1.123197973E-1,1.672438528E-1
1.059000300E1,1.001452431E-1,-1.931739151E-1,-1.165958494E-1,2.468599265E-1
1.059993100E1,1.038104370E-1,-4.546242356E-1,-5.306586623E-2,4.693354756E-1
1.060997400E1,9.709092230E-2,-6.696488261E-1,3.001180850E-2,6.773159574E-1
1.062031200E1,7.509976625E-2,-8.474106193E-1,1.008721739E-1,8.566912676E-1
1.063008200E1,5.188689381E-2,-8.529083729E-1,1.418001503E-1,8.661710137E-1
1.064014400E1,7.265631109E-2,-1.571328640E-1,1.106460169E-1,2.054561207E-1
1.064995300E1,1.890017092E-2,1.464671642E-1,9.720698744E-2,1.768022767E-1
1.065995800E1,-7.578394562E-2,-2.396424115E-2,2.645840645E-1,2.762647615E-1
1.066991000E1,-9.044471383E-2,-3.618154675E-2,4.173003733E-1,4.285194887E-1
1.067990200E1,-8.739038557E-2,-3.251635283E-2,5.223692060E-1,5.306260265E-1
1.069006000E1,-7.944913954E-2,-3.984673694E-2,4.906042218E-1,4.985904438E-1
1.069992000E1,-4.157548770E-2,-2.152077854E-2,3.611007631E-1,3.641228174E-1
1.071056500E1,-1.775174402E-2,-2.029905096E-2,2.175474465E-1,2.192123796E-1
1.072014100E1,4.850269761E-3,-3.194822930E-3,1.014830396E-1,1.016490990E-1
1.072989800E1,8.515461348E-3,-1.973092556E-3,4.711603373E-2,4.792000429E-2
1.073992300E1,1.095892210E-2,-1.362226903E-3,3.367699683E-2,3.544141294E-2
1.074989800E1,2.806315012E-2,3.528968617E-2,5.627901107E-2,7.211261632E-2
1.076000700E1,6.593678892E-2,8.110458404E-2,1.234741881E-1,1.617760453E-1
1.076997800E1,4.394564778E-2,5.544824153E-2,1.558500528E-1,1.711577238E-1
1.078066200E1,1.645671017E-2,1.329853851E-2,1.509631276E-1,1.524386445E-1
1.078989800E1,4.394564778E-2,3.101363033E-2,1.112568900E-1,1.235765382E-1
1.079988200E1,8.609534800E-2,4.933958873E-2,4.966333508E-3,9.935526374E-2
1.080991000E1,7.693236321E-2,3.651141748E-2,-4.940067232E-2,9.844845627E-2
1.081999500E1,6.104987487E-2,2.368324809E-2,-5.612019449E-2,8.624070786E-2
1.082999700E1,6.471506506E-2,4.750699177E-2,-6.406144053E-2,1.027074587E-1
1.084017300E1,9.159313142E-2,1.207680814E-2,-7.017008960E-2,1.160128980E-1
1.085033300E1,1.551231146E-1,-2.194411159E-1,-3.107471578E-2,2.705239767E-1
1.086000400E1,1.600100398E-1,-3.538314700E-1,-6.039624661E-2,3.929982552E-1
1.087001300E1,1.270233244E-1,-2.799167633E-1,-7.566788048E-2,3.165658659E-1
1.088020000E1,-6.475173868E-4,-8.566162735E-2,-2.313346788E-2,8.873269418E-2
1.088995800E1,2.012190223E-2,2.185065299E-2,-3.840509802E-2,4.855196741E-2
1.090016400E1,2.378709242E-2,-4.416553304E-3,-4.512461647E-2,5.120119843E-2
1.090996800E1,7.293730974E-3,-2.518597245E-2,-2.130087279E-2,3.378252361E-2
1.091991400E1,6.682865322E-3,-3.862500563E-2,-1.519221999E-2,4.203992504E-2
1.092991200E1,-7.367035374E-3,-1.174693648E-2,-9.032864869E-2,9.138669761E-2
1.094020700E1,1.584584452E-2,-5.638283677E-3,-8.055479825E-2,8.229189846E-2
1.094998400E1,-7.977901027E-3,-3.923587129E-2,-3.535077348E-2,5.341140034E-2
1.096010800E1,-4.923574626E-3,-3.373808414E-2,-4.807510413E-3,3.443271794E-2
1.096991400E1,-2.480113180E-3,-1.724472269E-2,-9.694431908E-3,1.993773889E-2
1.098015300E1,3.017673967E-3,-3.805688582E-3,-3.290731087E-2,3.326380511E-2
1.099006100E1,1.795943594E-3,-5.027418025E-3,-4.695720971E-2,4.725970682E-2
1.099995700E1,1.034805644E-2,-6.249149330E-3,-5.184413493E-2,5.323484259E-2
1.101000700E1,8.515461348E-3,-1.968818530E-2,-5.367673188E-2,5.780423227E-2
1.102010300E1,-7.367035374E-3,-6.000529230E-2,-2.985298634E-2,6.742484043E-2
1.102987600E1,-9.199631400E-3,-8.810508996E-2,-6.029240787E-3,8.878902995E-2
1.103989700E1,-1.286482252E-2,-1.088745072E-1,8.020659909E-3,1.099249424E-1
1.105015200E1,-1.286482252E-2,-1.400286406E-1,1.107498631E-2,1.410538166E-1
1.105990300E1,-4.312708974E-3,-1.797348708E-1,2.879007719E-2,1.820771589E-1
1.106990800E1,-7.977901027E-3,-9.360288084E-2,1.596190967E-2,9.528866022E-2
1.107995700E1,-1.042136177E-2,-5.027418025E-3,6.902776659E-4,1.159121204E-2
1.109029000E1,-1.408655290E-2,-2.518597245E-2,8.020659909E-3,2.995154698E-2
1.109997100E1,-1.530828420E-2,-2.701856568E-2,6.798928604E-3,3.178949334E-2
1.110986100E1,-1.530828420E-2,-2.885116264E-2,9.853255004E-3,3.411480302E-2
1.111986700E1,-9.810496122E-3,-2.213164419E-2,1.351844706E-2,2.772731360E-2
1.112993000E1,-3.665219992E-5,-4.416553304E-3,1.168585010E-2,1.249265300E-2
1.113996400E1,1.034805644E-2,1.513113454E-2,7.941201329E-5,1.833138868E-2
1.114988700E1,2.012190223E-2,3.528968617E-2,-1.458135433E-2,4.316096377E-2
1.115989800E1,1.523497887E-2,2.429411188E-2,-1.335962396E-2,3.163523361E-2
1.116988800E1,4.850269761E-3,4.746425431E-3,-7.861836813E-3,1.038567038E-2
1.117997400E1,3.017673967E-3,2.913829871E-3,-7.861836813E-3,8.910961720E-3
