"Time (s)","Gyroscope x (rad/s)","Gyroscope y (rad/s)","Gyroscope z (rad/s)","Absolute (rad/s)"
0.000000000E0,5.294168368E-4,4.072450101E-4,-2.036616206E-5,6.682405749E-4
5.499050000E-2,5.294168368E-4,4.072450101E-4,-2.036616206E-5,6.682405749E-4
8.747975000E-2,5.294168368E-4,4.072450101E-4,-2.036616206E-5,6.682405749E-4
1.086788750E-1,-8.144835010E-5,1.628975384E-3,5.904994905E-4,1.734613583E-3
1.243249370E-1,1.140282140E-3,1.628975384E-3,-2.036616206E-5,1.988521798E-3
1.371684680E-1,5.294168368E-4,1.628975384E-3,-2.036616206E-5,1.712967533E-3
1.485312340E-1,5.294168368E-4,2.239840105E-3,5.904994905E-4,2.376100909E-3
1.592116170E-1,5.294168368E-4,2.239840105E-3,-2.036616206E-5,2.301647381E-3
1.695978080E-1,1.140282140E-3,2.239840105E-3,-2.036616206E-5,2.513472068E-3
1.796734040E-1,5.294168368E-4,-2.036206424E-4,5.904994905E-4,8.187998543E-4
1.897592020E-1,5.294168368E-4,4.072450101E-4,-2.036616206E-5,6.682405749E-4
1.998901010E-1,-8.144835010E-5,4.072450101E-4,-2.036616206E-5,4.158089857E-4
2.099350500E-1,5.294168368E-4,4.072450101E-4,-2.036616206E-5,6.682405749E-4
2.199555250E-1,-8.144835010E-5,4.072450101E-4,-2.036616206E-5,4.158089857E-4
2.299632620E-1,-8.144835010E-5,-2.036206424E-4,-2.036616206E-5,2.202498134E-4
2.399661310E-1,5.294168368E-4,-1.425351016E-3,5.904994905E-4,1.631133764E-3
2.499435650E-1,5.294168368E-4,1.628975384E-3,-2.036616206E-5,1.712967533E-3
2.599462820E-1,-8.144835010E-5,4.072450101E-4,-6.312318146E-4,7.556030279E-4
2.699256410E-1,-8.144835010E-5,-8.144853637E-4,-1.852963120E-3,2.025707917E-3
2.799633200E-1,5.294168368E-4,4.072450101E-4,-6.312318146E-4,9.190126708E-4
2.898991600E-1,5.294168368E-4,1.018109731E-3,-2.036616206E-5,1.147712679E-3
2.999015800E-1,-6.923135370E-4,4.072450101E-4,-6.312318146E-4,1.021567489E-3
3.099477900E-1,-8.144835010E-5,1.018109731E-3,-2.036616206E-5,1.021565485E-3
3.199388950E-1,5.294168368E-4,1.628975384E-3,-6.312318146E-4,1.825457913E-3
3.298889470E-1,-8.144835010E-5,2.239840105E-3,-6.312318146E-4,2.328512644E-3
3.399399730E-1,5.294168368E-4,6.515897345E-3,-6.312318146E-4,6.567773900E-3
3.499289860E-1,-8.144835010E-5,2.239840105E-3,-6.312318146E-4,2.328512644E-3
3.599364930E-1,5.294168368E-4,1.628975384E-3,-1.852963120E-3,2.523353981E-3
3.699277460E-1,-8.144835010E-5,3.461571410E-3,-1.242097467E-3,3.678575347E-3
3.798863730E-1,-6.923135370E-4,1.018109731E-3,5.904994905E-4,1.365479808E-3
3.898551860E-1,-1.303178957E-3,-1.425351016E-3,-2.036616206E-5,1.931402520E-3
3.998280930E-1,-8.144835010E-5,-2.036206424E-4,-6.312318146E-4,6.682430722E-4
4.098655460E-1,-6.923135370E-4,4.072450101E-4,-2.036616206E-5,8.034683020E-4
4.198172730E-1,-1.914044144E-3,-3.257946111E-3,5.904994905E-4,3.824456497E-3
4.298486360E-1,-6.923135370E-4,4.072450101E-4,-6.312318146E-4,1.021567489E-3
4.398628180E-1,-6.923135370E-4,4.072450101E-4,-2.036616206E-5,8.034683020E-4
4.499409090E-1,-1.914044144E-3,-8.144853637E-4,-6.312318146E-4,2.173799668E-3
4.598784540E-1,-1.303178957E-3,-1.425351016E-3,1.201363280E-3,2.274461397E-3
4.699742270E-1,-1.303178957E-3,-2.036216669E-3,-6.312318146E-4,2.498581061E-3
4.800441130E-1,-8.144835010E-5,-8.144853637E-4,-6.312318146E-4,1.033670085E-3
4.899605560E-1,-1.303178957E-3,-1.425351016E-3,-2.036616206E-5,1.931402520E-3
4.999462780E-1,5.294168368E-4,1.628975384E-3,-2.036616206E-5,1.712967533E-3
5.100686390E-1,-6.923135370E-4,-2.036216669E-3,-6.312318146E-4,2.241412492E-3
5.200143190E-1,-8.144835010E-5,-1.425351016E-3,-6.312318146E-4,1.560997424E-3
5.299351590E-1,-8.144835010E-5,-8.144853637E-4,-6.312318146E-4,1.033670085E-3
5.399325790E-1,-6.923135370E-4,-8.144853637E-4,-2.036616206E-5,1.069158184E-3
5.498967890E-1,-1.303178957E-3,-2.647081390E-3,-2.036616206E-5,2.950547417E-3
5.598758940E-1,-2.524909331E-3,-7.534003817E-3,-2.036616206E-5,7.945866562E-3
5.699314470E-1,-2.524909331E-3,-1.119919401E-2,-2.036616206E-5,1.148031046E-2
5.799367230E-1,-6.923135370E-4,-3.257946111E-3,-2.036616206E-5,3.330754521E-3
5.899378610E-1,1.140282140E-3,3.461571410E-3,-2.036616206E-5,3.644603513E-3
5.998919300E-1,-1.914044144E-3,-4.479677416E-3,5.904994905E-4,4.907113651E-3
6.098864650E-1,-6.923135370E-4,-2.036216669E-3,5.904994905E-4,2.230283839E-3
6.199322320E-1,-6.923135370E-4,-2.647081390E-3,-2.036616206E-5,2.736193103E-3
6.298871160E-1,-6.923135370E-4,-5.090543069E-3,-6.312318146E-4,5.176039062E-3
6.399010580E-1,-8.144835010E-5,-1.425351016E-3,5.904994905E-4,1.544975405E-3
6.498635290E-1,-8.144835010E-5,-8.144853637E-4,-2.036616206E-5,8.188009660E-4
6.598447640E-1,5.294168368E-4,2.239840105E-3,-2.036616206E-5,2.301647381E-3
6.698293820E-1,-8.144835010E-5,-2.036206424E-4,-6.312318146E-4,6.682430722E-4
6.798691910E-1,5.294168368E-4,-8.144853637E-4,-6.312318146E-4,1.158499978E-3
6.898480950E-1,5.294168368E-4,2.239840105E-3,-6.312318146E-4,2.386549704E-3
6.998550470E-1,-1.914044144E-3,-3.257946111E-3,-6.312318146E-4,3.830956989E-3
7.098480230E-1,-6.923135370E-4,-1.425351016E-3,-1.242097467E-3,2.013387611E-3
7.198790110E-1,-8.144835010E-5,4.072450101E-4,-6.312318146E-4,7.556030279E-4
7.298515050E-1,-8.144835010E-5,2.850705758E-3,-6.312318146E-4,2.920892116E-3
7.398777520E-1,1.751147443E-3,3.461571410E-3,-2.036616206E-5,3.879356748E-3
7.498498760E-1,5.294168368E-4,4.072450101E-4,-2.036616206E-5,6.682405749E-4
7.598459380E-1,-6.923135370E-4,-2.036206424E-4,-2.036616206E-5,7.219239434E-4
7.698234690E-1,-6.923135370E-4,-2.036206424E-4,-6.312318146E-4,9.587559665E-4
7.798442340E-1,-8.144835010E-5,-2.036206424E-4,-6.312318146E-4,6.682430722E-4
7.898881170E-1,-6.923135370E-4,-1.425351016E-3,-6.312318146E-4,1.705689643E-3
7.998500580E-1,-8.144835010E-5,-8.144853637E-4,-6.312318146E-4,1.033670085E-3
8.098900290E-1,-8.144835010E-5,-2.036206424E-4,5.904994905E-4,6.299086029E-4
8.198545140E-1,-8.144835010E-5,-2.036206424E-4,-2.036616206E-5,2.202498134E-4
8.299192570E-1,1.751147443E-3,2.850705758E-3,-2.036616206E-5,3.345662187E-3
8.398881280E-1,1.751147443E-3,3.461571410E-3,-2.036616206E-5,3.879356748E-3
8.500235640E-1,1.140282140E-3,2.239840105E-3,5.904994905E-4,2.581824298E-3
8.599652820E-1,5.294168368E-4,1.628975384E-3,-2.036616206E-5,1.712967533E-3
8.699166410E-1,-8.144835010E-5,1.018109731E-3,5.904994905E-4,1.179775787E-3
8.798503200E-1,5.294168368E-4,2.239840105E-3,-2.036616206E-5,2.301647381E-3
8.898621600E-1,1.140282140E-3,3.461571410E-3,-6.312318146E-4,3.698807050E-3
8.998130800E-1,5.294168368E-4,2.239840105E-3,-2.036616206E-5,2.301647381E-3
9.098115400E-1,5.294168368E-4,1.628975384E-3,-2.036616206E-5,1.712967533E-3
9.198137700E-1,-6.923135370E-4,-1.425351016E-3,-2.036616206E-5,1.584720270E-3
9.298878850E-1,-6.923135370E-4,-8.144853637E-4,-2.036616206E-5,1.069158184E-3
9.399079420E-1,-6.923135370E-4,-2.647081390E-3,5.904994905E-4,2.799111925E-3
9.499744710E-1,-8.144835010E-5,-2.036216669E-3,-2.036616206E-5,2.037946745E-3
9.599092350E-1,-8.144835010E-5,-8.144853637E-4,-2.036616206E-5,8.188009660E-4
9.698351170E-1,5.294168368E-4,4.072450101E-4,-6.312318146E-4,9.190126708E-4
9.798210580E-1,2.972877817E-3,9.570223279E-3,-6.312318146E-4,1.004119663E-2
9.898765290E-1,-8.144835010E-5,-8.144853637E-4,-2.036616206E-5,8.188009660E-4
9.998652640E-1,-8.144835010E-5,-2.036206424E-4,-2.036616206E-5,2.202498134E-4
1.009964132E0,1.140282140E-3,3.461571410E-3,5.904994905E-4,3.692073894E-3
1.019907066E0,-8.144835010E-5,-8.144853637E-4,-2.036616206E-5,8.188009660E-4
1.029984033E0,-8.144835010E-5,-2.036216669E-3,-2.036616206E-5,2.037946745E-3
1.039898016E0,1.140282140E-3,-2.036206424E-4,-6.312318146E-4,1.319150609E-3
1.049911008E0,1.751147443E-3,2.239840105E-3,-2.036616206E-5,2.843205206E-3
1.059881004E0,5.294168368E-4,4.072436132E-3,5.904994905E-4,4.148940573E-3
1.069942002E0,1.140282140E-3,4.072436132E-3,-2.036616206E-5,4.229112695E-3
1.079912001E0,5.294168368E-4,3.461571410E-3,-6.312318146E-4,3.558259746E-3
1.089872000E0,1.140282140E-3,2.239840105E-3,5.904994905E-4,2.581824298E-3
1.099843000E0,5.294168368E-4,1.628975384E-3,-2.036616206E-5,1.712967533E-3
1.109871000E0,5.294168368E-4,1.628975384E-3,-2.036616206E-5,1.712967533E-3
1.119836500E0,5.294168368E-4,2.239840105E-3,5.904994905E-4,2.376100909E-3
1.129894750E0,1.140282140E-3,2.850705758E-3,-2.036616206E-5,3.070371550E-3
1.139825375E0,1.140282140E-3,2.239840105E-3,5.904994905E-4,2.581824298E-3
1.149957187E0,5.294168368E-4,4.072450101E-4,-6.312318146E-4,9.190126708E-4
1.159938093E0,5.294168368E-4,-8.144853637E-4,-2.036616206E-5,9.716395295E-4
1.169928546E0,1.140282140E-3,-2.036206424E-4,-2.036616206E-5,1.158498816E-3
1.179876273E0,1.140282140E-3,-2.036206424E-4,-2.036616206E-5,1.158498816E-3
1.189840136E0,5.294168368E-4,1.018109731E-3,1.201363280E-3,1.661355875E-3
1.199854568E0,5.294168368E-4,-2.036206424E-4,5.904994905E-4,8.187998543E-4
1.209847284E0,1.140282140E-3,1.628975384E-3,5.904994905E-4,2.074245359E-3
1.219878642E0,1.751147443E-3,4.683301784E-3,-2.036616206E-5,5.000024775E-3
1.230016321E0,1.751147443E-3,3.461571410E-3,-2.036616206E-5,3.879356748E-3
1.239938160E0,1.751147443E-3,4.072436132E-3,-6.312318146E-4,4.477689920E-3
1.249896580E0,1.751147443E-3,5.905032158E-3,-6.312318146E-4,6.191476057E-3
1.259930290E0,1.751147443E-3,5.294166505E-3,-6.312318146E-4,5.611877579E-3
1.269882145E0,1.751147443E-3,6.515897345E-3,-2.036616206E-5,6.747136456E-3
1.279910572E0,5.294168368E-4,2.239840105E-3,-2.036616206E-5,2.301647381E-3
1.289851286E0,-8.144835010E-5,1.018109731E-3,-2.036616206E-5,1.021565485E-3
1.299919143E0,5.294168368E-4,1.628975384E-3,-6.312318146E-4,1.825457913E-3
1.309873071E0,5.294168368E-4,1.628975384E-3,-2.036616206E-5,1.712967533E-3
1.319895035E0,-8.144835010E-5,2.239840105E-3,-6.312318146E-4,2.328512644E-3
1.329884017E0,5.294168368E-4,2.239840105E-3,-2.036616206E-5,2.301647381E-3
1.339851508E0,1.751147443E-3,2.850705758E-3,1.201363280E-3,3.554759404E-3
1.349889754E0,1.140282140E-3,3.461571410E-3,5.904994905E-4,3.692073894E-3
1.359869877E0,1.751147443E-3,3.461571410E-3,-2.036616206E-5,3.879356748E-3
1.369912438E0,1.140282140E-3,2.850705758E-3,5.904994905E-4,3.126572616E-3
1.379868719E0,1.751147443E-3,3.461571410E-3,5.904994905E-4,3.923988232E-3
1.389813359E0,1.751147443E-3,4.072436132E-3,5.904994905E-4,4.472129589E-3
1.399939679E0,1.140282140E-3,4.072436132E-3,5.904994905E-4,4.270090052E-3
1.409922339E0,1.140282140E-3,4.683301784E-3,-2.036616206E-5,4.820163248E-3
1.419892669E0,1.751147443E-3,4.072436132E-3,5.904994905E-4,4.472129589E-3
1.429942834E0,1.751147443E-3,3.461571410E-3,5.904994905E-4,3.923988232E-3
1.439904917E0,-8.144835010E-5,3.461571410E-3,-6.312318146E-4,3.519597145E-3
1.449926458E0,-6.923135370E-4,-8.144853637E-4,-2.036616206E-5,1.069158184E-3
1.459893229E0,5.294168368E-4,-8.144853637E-4,-2.036616206E-5,9.716395295E-4
1.469940114E0,1.140282140E-3,1.018109731E-3,-1.242097467E-3,1.969669237E-3
1.479978557E0,-8.144835010E-5,2.239840105E-3,-6.312318146E-4,2.328512644E-3
1.489904778E0,-8.144835010E-5,1.018109731E-3,-2.036616206E-5,1.021565485E-3
1.499887389E0,-1.303178957E-3,-3.257946111E-3,-2.036616206E-5,3.508974642E-3
1.509921694E0,-1.596394368E-2,-5.334889516E-2,5.904994905E-4,5.568932395E-2
1.519917347E0,-1.840740629E-2,-6.067927554E-2,8.531747386E-3,6.398123006E-2
1.529903173E0,-3.746639704E-3,-9.977464564E-3,2.869029902E-2,3.060588777E-2
1.539888586E0,-4.968370311E-3,-1.791871339E-2,3.235549480E-2,3.731813281E-2
1.549847793E0,-6.190100685E-3,-2.219476923E-2,2.991203032E-2,3.775784271E-2
1.559839396E0,-3.746639704E-3,-1.303179096E-2,1.647299342E-2,2.133598831E-2
1.569855198E0,-8.144835010E-5,-2.036206424E-4,5.477420986E-3,5.481809542E-3
1.579807099E0,-1.303178957E-3,-2.036216669E-3,1.812228933E-3,3.021361849E-3
1.589791549E0,-1.914044144E-3,-3.868811764E-3,5.904994905E-4,4.356599488E-3
1.599804774E0,-6.923135370E-4,-4.479677416E-3,5.904994905E-4,4.571159310E-3
1.609797887E0,-8.144835010E-5,-2.036216669E-3,-6.312318146E-4,2.133369579E-3
1.619772443E0,-8.144835010E-5,-2.647081390E-3,-6.312318146E-4,2.722522236E-3
1.629874721E0,-8.144835010E-5,-2.036216669E-3,-6.312318146E-4,2.133369579E-3
1.639829360E0,-8.144835010E-5,-8.144853637E-4,-2.036616206E-5,8.188009660E-4
1.649823180E0,-8.144835010E-5,-2.036206424E-4,-2.036616206E-5,2.202498134E-4
1.659817090E0,-1.303178957E-3,-6.312272511E-3,-6.312318146E-4,6.476226776E-3
1.669846545E0,-8.144835010E-5,-3.868811764E-3,-2.036616206E-5,3.869722610E-3
1.679800272E0,-8.144835010E-5,4.072450101E-4,-1.242097467E-3,1.309690211E-3
1.689802636E0,-6.923135370E-4,-1.425351016E-3,-2.036616206E-5,1.584720270E-3
1.699858318E0,-6.923135370E-4,-2.036216669E-3,-6.312318146E-4,2.241412492E-3
1.709836659E0,-1.303178957E-3,-4.479677416E-3,5.904994905E-4,4.702602981E-3
1.719839829E0,-1.914044144E-3,-8.144869469E-3,-2.036616206E-5,8.366772283E-3
1.729866414E0,-1.914044144E-3,-7.534003817E-3,-1.242097467E-3,7.871949226E-3
1.739827207E0,-6.923135370E-4,-3.257946111E-3,-6.312318146E-4,3.389980015E-3
1.749840603E0,-1.914044144E-3,-6.923138164E-3,-2.036616206E-5,7.182883947E-3
1.759825301E0,-4.357504658E-3,-1.181005966E-2,-2.036616206E-5,1.258831882E-2
1.769825650E0,-2.524909331E-3,-8.144869469E-3,-2.036616206E-5,8.527278615E-3
1.779802825E0,-1.303178957E-3,-6.312272511E-3,-6.312318146E-4,6.476226776E-3
1.789780912E0,-6.923135370E-4,-5.701406859E-3,-2.036616206E-5,5.743322469E-3
1.799801456E0,-6.923135370E-4,-2.036216669E-3,5.904994905E-4,2.230283839E-3
1.809793228E0,-1.303178957E-3,-2.036216669E-3,-6.312318146E-4,2.498581061E-3
1.819823614E0,-6.923135370E-4,-2.036206424E-4,-2.036616206E-5,7.219239434E-4
1.829810807E0,-1.303178957E-3,-2.647081390E-3,-2.036616206E-5,2.950547417E-3
1.839778903E0,-2.524909331E-3,-6.312272511E-3,-2.036616206E-5,6.798556182E-3
1.849835951E0,-3.746639704E-3,-1.119919401E-2,-6.312318146E-4,1.182614515E-2
1.859805975E0,-6.190100685E-3,-1.975130662E-2,-2.036616206E-5,2.069859596E-2
1.869822487E0,-2.524909331E-3,-3.868811764E-3,-6.312318146E-4,4.662759397E-3
1.879857743E0,5.294168368E-4,1.018109731E-3,-2.036616206E-5,1.147712679E-3
1.889854871E0,-8.144835010E-5,-1.425351016E-3,1.201363280E-3,1.865886675E-3
1.899851935E0,-6.923135370E-4,-2.036206424E-4,-2.036616206E-5,7.219239434E-4
1.909807467E0,-6.923135370E-4,-1.425351016E-3,-2.036616206E-5,1.584720270E-3
1.919809233E0,-6.923135370E-4,-1.425351016E-3,-6.312318146E-4,1.705689643E-3
1.929802616E0,5.294168368E-4,-8.144853637E-4,-6.312318146E-4,1.158499978E-3
1.939810808E0,-6.923135370E-4,-2.036206424E-4,-6.312318146E-4,9.587559665E-4
1.949793404E0,-8.144835010E-5,-2.036206424E-4,-6.312318146E-4,6.682430722E-4
1.959801202E0,-6.923135370E-4,-8.144853637E-4,-2.036616206E-5,1.069158184E-3
1.969781101E0,-8.144835010E-5,-2.036216669E-3,-2.036616206E-5,2.037946745E-3
1.979875050E0,-6.923135370E-4,-8.144853637E-4,-6.312318146E-4,1.241425811E-3
1.989862025E0,-8.144835010E-5,4.072450101E-4,5.904994905E-4,7.219224199E-4
1.999840012E0,5.294168368E-4,-8.144853637E-4,-2.036616206E-5,9.716395295E-4
2.009870006E0,5.294168368E-4,1.018109731E-3,-6.312318146E-4,1.309688213E-3
2.019825003E0,-8.144835010E-5,-2.036206424E-4,-6.312318146E-4,6.682430722E-4
2.029810501E0,5.294168368E-4,4.072450101E-4,-2.036616206E-5,6.682405749E-4
2.039798250E0,5.294168368E-4,4.072450101E-4,-2.036616206E-5,6.682405749E-4
2.049836625E0,-8.144835010E-5,-2.036206424E-4,-2.036616206E-5,2.202498134E-4
2.059840312E0,-8.144835010E-5,4.072450101E-4,-2.036616206E-5,4.158089857E-4
2.069853656E0,5.294168368E-4,-2.036206424E-4,-2.036616206E-5,5.675899344E-4
2.079829328E0,-8.144835010E-5,-2.036206424E-4,5.904994905E-4,6.299086029E-4
2.089823664E0,5.294168368E-4,4.072450101E-4,-2.036616206E-5,6.682405749E-4
2.099810832E0,5.294168368E-4,4.072450101E-4,-2.036616206E-5,6.682405749E-4
2.109857916E0,5.294168368E-4,1.018109731E-3,-2.036616206E-5,1.147712679E-3
2.119864958E0,-8.144835010E-5,4.072450101E-4,-2.036616206E-5,4.158089857E-4
2.129819479E0,-8.144835010E-5,-2.036206424E-4,-2.036616206E-5,2.202498134E-4
2.139812239E0,-8.144835010E-5,-2.036206424E-4,-2.036616206E-5,2.202498134E-4
2.149862119E0,-8.144835010E-5,-2.036206424E-4,5.904994905E-4,6.299086029E-4
2.159833059E0,-6.923135370E-4,-2.036206424E-4,-2.036616206E-5,7.219239434E-4
2.169847029E0,5.294168368E-4,-2.036206424E-4,-2.036616206E-5,5.675899344E-4
2.179834514E0,-8.144835010E-5,4.072450101E-4,-2.036616206E-5,4.158089857E-4
2.189837257E0,-8.144835010E-5,-2.036206424E-4,5.904994905E-4,6.299086029E-4
2.199831628E0,-8.144835010E-5,-2.036206424E-4,5.904994905E-4,6.299086029E-4
2.209815314E0,-8.144835010E-5,4.072450101E-4,-6.312318146E-4,7.556030279E-4
2.219794657E0,-8.144835010E-5,4.072450101E-4,-2.036616206E-5,4.158089857E-4
2.229855828E0,5.294168368E-4,4.072450101E-4,-2.036616206E-5,6.682405749E-4
2.239924914E0,-8.144835010E-5,-2.036206424E-4,-1.242097467E-3,1.261309366E-3
2.249907457E0,-8.144835010E-5,4.072450101E-4,-6.312318146E-4,7.556030279E-4
2.259936228E0,-8.144835010E-5,-2.036206424E-4,-2.036616206E-5,2.202498134E-4
2.269903614E0,5.294168368E-4,-2.036206424E-4,5.904994905E-4,8.187998543E-4
2.279938807E0,-6.923135370E-4,-2.036206424E-4,-2.036616206E-5,7.219239434E-4
2.289891903E0,-6.923135370E-4,4.072450101E-4,-2.036616206E-5,8.034683020E-4
2.299872451E0,-8.144835010E-5,-2.036206424E-4,-2.036616206E-5,2.202498134E-4
2.309902225E0,-8.144835010E-5,-2.036206424E-4,-2.036616206E-5,2.202498134E-4
2.319913612E0,5.294168368E-4,-2.036206424E-4,-2.036616206E-5,5.675899344E-4
2.329931806E0,-8.144835010E-5,4.072450101E-4,-2.036616206E-5,4.158089857E-4
2.339903403E0,-8.144835010E-5,4.072450101E-4,-2.036616206E-5,4.158089857E-4
2.349860701E0,-8.144835010E-5,-2.036206424E-4,-2.036616206E-5,2.202498134E-4
2.359888350E0,-8.144835010E-5,4.072450101E-4,5.904994905E-4,7.219224199E-4
2.369885175E0,-6.923135370E-4,-2.036206424E-4,5.904994905E-4,9.324425172E-4
2.379866087E0,5.294168368E-4,-2.036206424E-4,5.904994905E-4,8.187998543E-4
2.389883543E0,5.294168368E-4,4.072450101E-4,-2.036616206E-5,6.682405749E-4
2.399837271E0,5.294168368E-4,4.072450101E-4,5.904994905E-4,8.915269674E-4
2.409839635E0,-8.144835010E-5,4.072450101E-4,5.904994905E-4,7.219224199E-4
2.419989817E0,-8.144835010E-5,1.018109731E-3,-6.312318146E-4,1.200681000E-3
2.429944408E0,5.294168368E-4,4.072450101E-4,-2.036616206E-5,6.682405749E-4
2.439905704E0,-8.144835010E-5,4.072450101E-4,-2.036616206E-5,4.158089857E-4
2.449906352E0,-8.144835010E-5,4.072450101E-4,5.904994905E-4,7.219224199E-4
2.459845176E0,5.294168368E-4,-2.036206424E-4,-2.036616206E-5,5.675899344E-4
2.469895088E0,5.294168368E-4,1.018109731E-3,-2.036616206E-5,1.147712679E-3
2.479892044E0,-8.144835010E-5,-2.036206424E-4,5.904994905E-4,6.299086029E-4
2.489857522E0,-8.144835010E-5,-2.036206424E-4,-2.036616206E-5,2.202498134E-4
2.499854761E0,5.294168368E-4,-2.036206424E-4,-2.036616206E-5,5.675899344E-4
2.509920880E0,-8.144835010E-5,-8.144853637E-4,5.904994905E-4,1.009311592E-3
2.519978940E0,-8.144835010E-5,4.072450101E-4,-2.036616206E-5,4.158089857E-4
2.529963470E0,5.294168368E-4,4.072450101E-4,5.904994905E-4,8.915269674E-4
2.539923235E0,-8.144835010E-5,4.072450101E-4,-6.312318146E-4,7.556030279E-4
2.550004117E0,5.294168368E-4,1.018109731E-3,-2.036616206E-5,1.147712679E-3
2.559916558E0,-8.144835010E-5,-2.036206424E-4,-2.036616206E-5,2.202498134E-4
2.569910779E0,5.294168368E-4,4.072450101E-4,-2.036616206E-5,6.682405749E-4
2.579890389E0,-8.144835010E-5,4.072450101E-4,5.904994905E-4,7.219224199E-4
2.589868194E0,-8.144835010E-5,4.072450101E-4,5.904994905E-4,7.219224199E-4
2.599861097E0,5.294168368E-4,-2.036206424E-4,5.904994905E-4,8.187998543E-4
2.609880048E0,5.294168368E-4,4.072450101E-4,5.904994905E-4,8.915269674E-4
2.619824524E0,-8.144835010E-5,-2.036206424E-4,-6.312318146E-4,6.682430722E-4
2.629867262E0,-8.144835010E-5,-2.036206424E-4,-6.312318146E-4,6.682430722E-4
2.639844131E0,-8.144835010E-5,-2.036206424E-4,-6.312318146E-4,6.682430722E-4
2.649863065E0,5.294168368E-4,-2.036206424E-4,-2.036616206E-5,5.675899344E-4
2.659853532E0,5.294168368E-4,4.072450101E-4,-2.036616206E-5,6.682405749E-4
2.669884266E0,-8.144835010E-5,-2.036206424E-4,-6.312318146E-4,6.682430722E-4
2.679885633E0,-8.144835010E-5,1.018109731E-3,-6.312318146E-4,1.200681000E-3
2.689850816E0,5.294168368E-4,1.018109731E-3,-6.312318146E-4,1.309688213E-3
2.699860408E0,-8.144835010E-5,-2.036206424E-4,-2.036616206E-5,2.202498134E-4
2.709907704E0,5.294168368E-4,4.072450101E-4,-6.312318146E-4,9.190126708E-4
2.719914852E0,1.140282140E-3,4.072450101E-4,5.904994905E-4,1.347138265E-3
2.729867926E0,-8.144835010E-5,-2.036206424E-4,-2.036616206E-5,2.202498134E-4
2.739874963E0,-8.144835010E-5,-2.036206424E-4,-6.312318146E-4,6.682430722E-4
2.749901481E0,5.294168368E-4,1.018109731E-3,-6.312318146E-4,1.309688213E-3
2.759898240E0,5.294168368E-4,4.072450101E-4,-2.036616206E-5,6.682405749E-4
2.769893120E0,5.294168368E-4,4.072450101E-4,-2.036616206E-5,6.682405749E-4
2.779872560E0,5.294168368E-4,1.018109731E-3,-6.312318146E-4,1.309688213E-3
2.789830780E0,-6.923135370E-4,4.072450101E-4,-2.036616206E-5,8.034683020E-4
2.799878890E0,5.294168368E-4,-2.036206424E-4,-6.312318146E-4,8.486443053E-4
2.809854445E0,5.294168368E-4,4.072450101E-4,-2.036616206E-5,6.682405749E-4
2.819848222E0,-8.144835010E-5,1.018109731E-3,-6.312318146E-4,1.200681000E-3
2.829878111E0,-8.144835010E-5,4.072450101E-4,-2.036616206E-5,4.158089857E-4
2.839873055E0,-8.144835010E-5,4.072450101E-4,-2.036616206E-5,4.158089857E-4
2.849877527E0,5.294168368E-4,-2.036206424E-4,-2.036616206E-5,5.675899344E-4
2.859901263E0,-8.144835010E-5,4.072450101E-4,-6.312318146E-4,7.556030279E-4
2.869869131E0,-8.144835010E-5,-2.036206424E-4,-6.312318146E-4,6.682430722E-4
2.879887065E0,-6.923135370E-4,-2.036206424E-4,-2.036616206E-5,7.219239434E-4
2.889876032E0,4.703656305E-4,-1.466171816E-4,-1.710429788E-4,5.215324773E-4
2.899851016E0,4.703656305E-4,4.642484710E-4,4.398226738E-4,7.938604748E-4
2.909867008E0,-7.513647433E-4,4.642484710E-4,-1.710429788E-4,8.996284349E-4
2.919950504E0,-1.404995564E-4,4.642484710E-4,4.398226738E-4,6.547600725E-4
2.930046752E0,-1.404995564E-4,4.642484710E-4,4.398226738E-4,6.547600725E-4
2.939950376E0,-1.404995564E-4,1.075113192E-3,-1.710429788E-4,1.097663064E-3
2.949988688E0,-1.404995564E-4,4.642484710E-4,-1.710429788E-4,5.143174785E-4
2.959991344E0,-1.404995564E-4,4.642484710E-4,-1.710429788E-4,5.143174785E-4
2.969988672E0,4.703656305E-4,4.642484710E-4,-7.819086313E-4,1.023792741E-3
2.979930336E0,1.081230934E-3,-1.466171816E-4,-7.819086313E-4,1.342362856E-3
2.989870668E0,-1.404995564E-4,-1.466171816E-4,-1.710429788E-4,2.655040939E-4
2.999939334E0,4.703656305E-4,-1.466171816E-4,-7.819086313E-4,9.241869573E-4
3.009922167E0,-1.404995564E-4,4.642484710E-4,-7.819086313E-4,9.201347053E-4
3.019936583E0,4.703656305E-4,4.642484710E-4,-7.819086313E-4,1.023792741E-3
3.030081291E0,4.703656305E-4,1.075113192E-3,-7.819086313E-4,1.410139465E-3
3.039971145E0,1.081230934E-3,1.075113192E-3,-7.819086313E-4,1.713566403E-3
3.049967072E0,4.703656305E-4,4.642484710E-4,-1.710429788E-4,6.826610943E-4
3.059911036E0,4.703656305E-4,4.642484710E-4,-1.710429788E-4,6.826610943E-4
3.070007518E0,4.703656305E-4,4.642484710E-4,-1.710429788E-4,6.826610943E-4
3.079965259E0,-1.404995564E-4,4.642484710E-4,-7.819086313E-4,9.201347053E-4
3.089943129E0,4.703656305E-4,4.642484710E-4,-1.710429788E-4,6.826610943E-4
3.100025064E0,-1.404995564E-4,4.642484710E-4,-1.710429788E-4,5.143174785E-4
3.109958032E0,-1.404995564E-4,-1.466171816E-4,4.398226738E-4,4.844385489E-4
3.119896016E0,4.703656305E-4,4.642484710E-4,-1.710429788E-4,6.826610943E-4
3.129879008E0,4.703656305E-4,4.642484710E-4,-1.710429788E-4,6.826610943E-4
3.139858504E0,-1.404995564E-4,-1.466171816E-4,-1.710429788E-4,2.655040939E-4
3.150080252E0,-1.404995564E-4,4.642484710E-4,4.398226738E-4,6.547600725E-4
3.160104126E0,-1.404995564E-4,4.642484710E-4,-1.710429788E-4,5.143174785E-4
3.170019563E0,-1.404995564E-4,1.075113192E-3,-1.710429788E-4,1.097663064E-3
3.179929281E0,4.703656305E-4,4.642484710E-4,-1.710429788E-4,6.826610943E-4
3.189891140E0,1.081230934E-3,-1.466171816E-4,-1.392774284E-3,1.769287183E-3
3.199863070E0,4.703656305E-4,4.642484710E-4,-1.710429788E-4,6.826610943E-4
3.209851535E0,4.703656305E-4,-1.466171816E-4,-1.710429788E-4,5.215324773E-4
3.219919767E0,-1.404995564E-4,-1.466171816E-4,-1.710429788E-4,2.655040939E-4
3.229913383E0,4.703656305E-4,4.642484710E-4,-1.710429788E-4,6.826610943E-4
3.239953191E0,4.703656305E-4,4.642484710E-4,-7.819086313E-4,1.023792741E-3
3.249880595E0,-1.404995564E-4,4.642484710E-4,4.398226738E-4,6.547600725E-4
3.259925797E0,-7.513647433E-4,4.642484710E-4,-1.710429788E-4,8.996284349E-4
3.269883398E0,-1.404995564E-4,4.642484710E-4,-1.710429788E-4,5.143174785E-4
3.279891199E0,-1.404995564E-4,4.642484710E-4,4.398226738E-4,6.547600725E-4
3.289961099E0,4.703656305E-4,-1.466171816E-4,-1.710429788E-4,5.215324773E-4
3.299983549E0,4.703656305E-4,4.642484710E-4,-7.819086313E-4,1.023792741E-3
3.309926274E0,4.703656305E-4,-1.466171816E-4,-1.710429788E-4,5.215324773E-4
3.319935637E0,-1.404995564E-4,4.642484710E-4,-1.710429788E-4,5.143174785E-4
3.329962818E0,4.703656305E-4,4.642484710E-4,-7.819086313E-4,1.023792741E-3
3.339919409E0,4.703656305E-4,4.642484710E-4,-7.819086313E-4,1.023792741E-3
3.349937704E0,4.703656305E-4,-1.466171816E-4,-7.819086313E-4,9.241869573E-4
3.359875852E0,4.703656305E-4,-1.466171816E-4,-1.710429788E-4,5.215324773E-4
3.369850426E0,4.703656305E-4,1.075113192E-3,-1.710429788E-4,1.185903834E-3
3.379831213E0,-1.404995564E-4,-1.466171816E-4,-7.819086313E-4,8.078476534E-4
3.389871606E0,-1.404995564E-4,-1.466171816E-4,-1.710429788E-4,2.655040939E-4
3.399895303E0,-1.404995564E-4,1.075113192E-3,-7.819086313E-4,1.336783307E-3
3.409994151E0,-1.404995564E-4,4.642484710E-4,-7.819086313E-4,9.201347053E-4
3.419960075E0,-1.404995564E-4,-1.466171816E-4,-1.710429788E-4,2.655040939E-4
3.429999537E0,-1.404995564E-4,4.642484710E-4,-1.710429788E-4,5.143174785E-4
3.439932768E0,4.703656305E-4,4.642484710E-4,-1.710429788E-4,6.826610943E-4
3.449965384E0,-1.404995564E-4,-1.466171816E-4,-1.710429788E-4,2.655040939E-4
3.459917192E0,-1.404995564E-4,4.642484710E-4,-7.819086313E-4,9.201347053E-4
3.469977596E0,-1.404995564E-4,-1.466171816E-4,-1.710429788E-4,2.655040939E-4
3.480168798E0,-1.404995564E-4,4.642484710E-4,-1.710429788E-4,5.143174785E-4
3.490104899E0,4.703656305E-4,4.642484710E-4,-7.819086313E-4,1.023792741E-3
3.500111449E0,4.703656305E-4,4.642484710E-4,-7.819086313E-4,1.023792741E-3
3.510007724E0,-1.404995564E-4,4.642484710E-4,-1.710429788E-4,5.143174785E-4
3.519962362E0,-1.404995564E-4,4.642484710E-4,-1.710429788E-4,5.143174785E-4
3.529972681E0,1.081230934E-3,1.075113192E-3,-1.710429788E-4,1.534335168E-3
3.539934340E0,-1.404995564E-4,-1.466171816E-4,4.398226738E-4,4.844385489E-4
3.549954670E0,-1.404995564E-4,4.642484710E-4,4.398226738E-4,6.547600725E-4
3.559947335E0,-7.513647433E-4,1.075113192E-3,-1.710429788E-4,1.322752076E-3
3.569896167E0,-1.404995564E-4,4.642484710E-4,-1.710429788E-4,5.143174785E-4
3.579903583E0,-7.513647433E-4,-1.466171816E-4,-1.710429788E-4,7.844114201E-4
3.589981791E0,-7.513647433E-4,-7.574819028E-4,4.398226738E-4,1.154024174E-3
3.599951895E0,4.703656305E-4,4.642484710E-4,4.398226738E-4,7.938604748E-4
3.609974447E0,-1.404995564E-4,4.642484710E-4,-1.710429788E-4,5.143174785E-4
3.619921223E0,4.703656305E-4,4.642484710E-4,-1.710429788E-4,6.826610943E-4
3.629933611E0,-1.404995564E-4,-1.466171816E-4,-1.710429788E-4,2.655040939E-4
3.639940805E0,4.703656305E-4,4.642484710E-4,-1.710429788E-4,6.826610943E-4
3.650014902E0,4.703656305E-4,4.642484710E-4,-7.819086313E-4,1.023792741E-3
3.659930451E0,-1.404995564E-4,-1.466171816E-4,-1.710429788E-4,2.655040939E-4
3.670146225E0,-1.404995564E-4,4.642484710E-4,-1.710429788E-4,5.143174785E-4
3.680030112E0,-1.404995564E-4,4.642484710E-4,4.398226738E-4,6.547600725E-4
3.689936556E0,-1.404995564E-4,4.642484710E-4,-1.710429788E-4,5.143174785E-4
3.699897278E0,-1.404995564E-4,1.075113192E-3,-7.819086313E-4,1.336783307E-3
3.709849139E0,-7.513647433E-4,4.642484710E-4,-1.710429788E-4,8.996284349E-4
3.719856069E0,-1.404995564E-4,4.642484710E-4,4.398226738E-4,6.547600725E-4
3.729844534E0,-7.513647433E-4,-1.466171816E-4,4.398226738E-4,8.828870595E-4
3.739855267E0,-1.404995564E-4,4.642484710E-4,-1.710429788E-4,5.143174785E-4
3.749850133E0,4.703656305E-4,4.642484710E-4,-1.710429788E-4,6.826610943E-4
3.759895566E0,-1.404995564E-4,4.642484710E-4,-1.710429788E-4,5.143174785E-4
3.769891783E0,-1.404995564E-4,1.075113192E-3,-7.819086313E-4,1.336783307E-3
3.779850891E0,-1.404995564E-4,4.642484710E-4,-7.819086313E-4,9.201347053E-4
3.789849945E0,-7.513647433E-4,-1.466171816E-4,-1.710429788E-4,7.844114201E-4
3.799919972E0,4.703656305E-4,4.642484710E-4,-7.819086313E-4,1.023792741E-3
3.809883986E0,-7.513647433E-4,1.075113192E-3,-1.710429788E-4,1.322752076E-3
3.819968993E0,4.703656305E-4,4.642484710E-4,-1.710429788E-4,6.826610943E-4
3.829976496E0,-1.404995564E-4,-1.466171816E-4,-1.710429788E-4,2.655040939E-4
3.840011248E0,-1.404995564E-4,-1.466171816E-4,-1.710429788E-4,2.655040939E-4
3.850009124E0,-1.404995564E-4,1.075113192E-3,-7.819086313E-4,1.336783307E-3
3.859923062E0,4.703656305E-4,1.075113192E-3,-1.710429788E-4,1.185903834E-3
3.869914531E0,4.703656305E-4,4.642484710E-4,-7.819086313E-4,1.023792741E-3
3.879884765E0,4.703656305E-4,4.642484710E-4,-7.819086313E-4,1.023792741E-3
3.889848882E0,-7.513647433E-4,4.642484710E-4,-7.819086313E-4,1.179600241E-3
3.899845941E0,-1.404995564E-4,1.075113192E-3,-1.710429788E-4,1.097663064E-3
3.909950470E0,-1.404995564E-4,1.075113192E-3,-1.710429788E-4,1.097663064E-3
3.919956735E0,-1.404995564E-4,4.642484710E-4,-7.819086313E-4,9.201347053E-4
3.929979867E0,4.703656305E-4,-1.466171816E-4,-1.710429788E-4,5.215324773E-4
3.939950433E0,-1.954769250E-4,-4.031779245E-4,-7.941015065E-5,4.550490512E-4
3.950005716E0,-1.954769250E-4,-4.031779245E-4,1.142319292E-3,1.227052171E-3
3.959991858E0,-8.063421119E-4,8.185524493E-4,-7.941015065E-5,1.151747232E-3
3.970003429E0,4.153882619E-4,2.076877281E-4,5.314555019E-4,7.057808095E-4
3.980035214E0,-1.954769250E-4,8.185524493E-4,-7.941015065E-5,8.453078212E-4
3.989951607E0,4.153882619E-4,2.076877281E-4,-6.902758032E-4,8.319629108E-4
3.999876803E0,-1.954769250E-4,-4.031779245E-4,-7.941015065E-5,4.550490512E-4
4.009877901E0,-1.954769250E-4,2.076877281E-4,-7.941015065E-5,2.960597788E-4
4.019859950E0,-1.954769250E-4,-4.031779245E-4,5.314555019E-4,6.951320864E-4
4.029887475E0,-1.954769250E-4,2.076877281E-4,5.314555019E-4,6.031503719E-4
4.039933237E0,-1.954769250E-4,2.076877281E-4,-7.941015065E-5,2.960597788E-4
4.049937118E0,-1.954769250E-4,-4.031779245E-4,-7.941015065E-5,4.550490512E-4
4.059898059E0,-1.954769250E-4,-4.031779245E-4,5.314555019E-4,6.951320864E-4
4.069934029E0,-8.063421119E-4,-4.031779245E-4,5.314555019E-4,1.046510865E-3
4.079879514E0,-1.954769250E-4,-4.031779245E-4,5.314555019E-4,6.951320864E-4
4.089866257E0,4.153882619E-4,-4.031779245E-4,-7.941015065E-5,5.842994257E-4
4.099912628E0,4.153882619E-4,-1.014042646E-3,-7.941015065E-5,1.098697350E-3
4.109981814E0,-8.063421119E-4,-4.031779245E-4,-7.941015065E-5,9.050116089E-4
4.119906407E0,-8.063421119E-4,-4.031779245E-4,-7.941015065E-5,9.050116089E-4
4.129861203E0,-1.954769250E-4,2.076877281E-4,-7.941015065E-5,2.960597788E-4
4.139853101E0,4.153882619E-4,2.076877281E-4,-7.941015065E-5,4.711555715E-4
4.149882050E0,4.153882619E-4,8.185524493E-4,-7.941015065E-5,9.213476502E-4
4.159834525E0,4.153882619E-4,8.185524493E-4,-6.902758032E-4,1.148501722E-3
4.169866762E0,4.153882619E-4,2.076877281E-4,-6.902758032E-4,8.319629108E-4
4.179901881E0,4.153882619E-4,-4.031779245E-4,-6.902758032E-4,9.008776451E-4
4.189860940E0,-1.954769250E-4,-1.014042646E-3,-7.941015065E-5,1.035760439E-3
4.199856470E0,-1.954769250E-4,-4.031779245E-4,-6.902758032E-4,8.229485716E-4
4.209858235E0,1.026253565E-3,-4.031779245E-4,-7.941015065E-5,1.105465871E-3
4.219834117E0,-1.954769250E-4,-4.031779245E-4,-6.902758032E-4,8.229485716E-4
4.229840058E0,-8.063421119E-4,-4.031779245E-4,-6.902758032E-4,1.135438561E-3
4.239823029E0,-8.063421119E-4,2.076877281E-4,-7.941015065E-5,8.364375445E-4
4.249847514E0,-8.063421119E-4,2.076877281E-4,-7.941015065E-5,8.364375445E-4
4.259802257E0,-1.954769250E-4,8.185524493E-4,-6.902758032E-4,1.088448448E-3
4.269810128E0,-1.954769250E-4,2.076877281E-4,-7.941015065E-5,2.960597788E-4
4.279864064E0,-1.954769250E-4,-4.031779245E-4,-7.941015065E-5,4.550490512E-4
4.289894032E0,4.153882619E-4,-4.031779245E-4,-7.941015065E-5,5.842994257E-4
4.299848516E0,-1.954769250E-4,-4.031779245E-4,-7.941015065E-5,4.550490512E-4
4.310010258E0,-8.063421119E-4,-4.031779245E-4,-7.941015065E-5,9.050116089E-4
4.319968629E0,-1.954769250E-4,2.076877281E-4,-7.941015065E-5,2.960597788E-4
4.329964314E0,-1.954769250E-4,2.076877281E-4,-7.941015065E-5,2.960597788E-4
4.339894657E0,4.153882619E-4,-4.031779245E-4,5.314555019E-4,7.858401857E-4
4.349909828E0,-1.954769250E-4,-4.031779245E-4,-7.941015065E-5,4.550490512E-4
4.359872914E0,-1.954769250E-4,2.076877281E-4,5.314555019E-4,6.031503719E-4
4.369866457E0,-1.954769250E-4,-4.031779245E-4,-6.902758032E-4,8.229485716E-4
4.379823228E0,-1.954769250E-4,-1.014042646E-3,-6.902758032E-4,1.242165206E-3
4.389874614E0,-1.954769250E-4,2.076877281E-4,-6.902758032E-4,7.468775704E-4
4.399836307E0,-8.063421119E-4,2.076877281E-4,-6.902758032E-4,1.081574074E-3
4.409924153E0,4.153882619E-4,-4.031779245E-4,5.314555019E-4,7.858401857E-4
4.419904076E0,4.153882619E-4,2.076877281E-4,-6.902758032E-4,8.319629108E-4
4.429898538E0,4.153882619E-4,2.076877281E-4,-7.941015065E-5,4.711555715E-4
4.439861269E0,1.026253565E-3,2.076877281E-4,-7.941015065E-5,1.050065019E-3
4.449854634E0,4.153882619E-4,2.076877281E-4,-7.941015065E-5,4.711555715E-4
4.459850817E0,4.153882619E-4,8.185524493E-4,-7.941015065E-5,9.213476502E-4
4.469874908E0,-1.954769250E-4,-4.031779245E-4,-7.941015065E-5,4.550490512E-4
4.479846454E0,-1.954769250E-4,-4.031779245E-4,-6.902758032E-4,8.229485716E-4
4.489810227E0,-1.954769250E-4,2.076877281E-4,-7.941015065E-5,2.960597788E-4
4.499842613E0,-1.954769250E-4,2.076877281E-4,-6.902758032E-4,7.468775704E-4
4.509858806E0,-1.954769250E-4,2.076877281E-4,5.314555019E-4,6.031503719E-4
4.519843903E0,-1.954769250E-4,2.076877281E-4,-7.941015065E-5,2.960597788E-4
4.529820951E0,1.026253565E-3,-4.031779245E-4,5.314555019E-4,1.224007259E-3
4.539866975E0,4.153882619E-4,2.076877281E-4,5.314555019E-4,7.057808095E-4
4.549860987E0,4.153882619E-4,-4.031779245E-4,5.314555019E-4,7.858401857E-4
4.559826993E0,4.153882619E-4,-4.031779245E-4,5.314555019E-4,7.858401857E-4
4.569840496E0,-1.954769250E-4,2.076877281E-4,5.314555019E-4,6.031503719E-4
4.579833248E0,-1.954769250E-4,2.076877281E-4,5.314555019E-4,6.031503719E-4
4.589932124E0,-1.954769250E-4,8.185524493E-4,-6.902758032E-4,1.088448448E-3
4.599937062E0,1.026253565E-3,-1.014042646E-3,5.314555019E-4,1.537505713E-3
4.609938531E0,4.153882619E-4,-4.031779245E-4,-7.941015065E-5,5.842994257E-4
4.619890765E0,-1.954769250E-4,2.076877281E-4,5.314555019E-4,6.031503719E-4
4.629879882E0,4.153882619E-4,-4.031779245E-4,1.142319292E-3,1.280622197E-3
4.639871941E0,-1.954769250E-4,-4.031779245E-4,-7.941015065E-5,4.550490512E-4
4.649852470E0,-8.063421119E-4,-4.031779245E-4,-7.941015065E-5,9.050116089E-4
4.659846735E0,4.153882619E-4,-4.031779245E-4,-6.902758032E-4,9.008776451E-4
4.669818867E0,4.153882619E-4,2.076877281E-4,-7.941015065E-5,4.711555715E-4
4.679821933E0,4.153882619E-4,8.185524493E-4,-7.941015065E-5,9.213476502E-4
4.689807966E0,-1.954769250E-4,-4.031779245E-4,5.314555019E-4,6.951320864E-4
4.699879483E0,-1.954769250E-4,-4.031779245E-4,-7.941015065E-5,4.550490512E-4
4.709821241E0,-1.954769250E-4,-4.031779245E-4,5.314555019E-4,6.951320864E-4
4.719854620E0,-1.954769250E-4,-4.031779245E-4,-7.941015065E-5,4.550490512E-4
4.729869310E0,4.153882619E-4,2.076877281E-4,-6.902758032E-4,8.319629108E-4
4.739864155E0,1.026253565E-3,2.076877281E-4,-7.941015065E-5,1.050065019E-3
4.749885077E0,-1.954769250E-4,8.185524493E-4,-7.941015065E-5,8.453078212E-4
4.759819538E0,-1.954769250E-4,-4.031779245E-4,-7.941015065E-5,4.550490512E-4
4.769919769E0,-8.063421119E-4,2.076877281E-4,-7.941015065E-5,8.364375445E-4
4.779979384E0,-8.063421119E-4,-1.014042646E-3,-7.941015065E-5,1.297989238E-3
4.789935692E0,-1.954769250E-4,2.076877281E-4,5.314555019E-4,6.031503719E-4
4.799905846E0,-8.063421119E-4,2.076877281E-4,5.314555019E-4,9.878090627E-4
4.809871423E0,-1.954769250E-4,8.185524493E-4,-6.902758032E-4,1.088448448E-3
4.819901211E0,4.153882619E-4,2.076877281E-4,-6.902758032E-4,8.319629108E-4
4.829859605E0,-1.417207532E-3,8.185524493E-4,-6.902758032E-4,1.776228022E-3
4.839850802E0,-1.954769250E-4,-4.031779245E-4,-7.941015065E-5,4.550490512E-4
4.849895901E0,4.153882619E-4,-4.031779245E-4,-7.941015065E-5,5.842994257E-4
4.859906450E0,-8.063421119E-4,2.076877281E-4,-6.902758032E-4,1.081574074E-3
4.869875225E0,-1.417207532E-3,2.076877281E-4,-7.941015065E-5,1.434544301E-3
4.879834112E0,-8.063421119E-4,-4.031779245E-4,-7.941015065E-5,9.050116089E-4
4.889827056E0,4.153882619E-4,-4.031779245E-4,-7.941015065E-5,5.842994257E-4
4.899816028E0,-8.063421119E-4,-4.031779245E-4,-7.941015065E-5,9.050116089E-4
4.909814014E0,-8.063421119E-4,-4.031779245E-4,5.314555019E-4,1.046510865E-3
4.919814507E0,-1.954769250E-4,8.185524493E-4,-7.941015065E-5,8.453078212E-4
4.929803753E0,-1.954769250E-4,8.185524493E-4,-7.941015065E-5,8.453078212E-4
4.939822376E0,-8.063421119E-4,8.185524493E-4,-7.941015065E-5,1.151747232E-3
4.949804688E0,4.153882619E-4,1.429418102E-3,-7.941015065E-5,1.490667465E-3
4.959809844E0,4.153882619E-4,1.429418102E-3,-6.902758032E-4,1.640812056E-3
4.969915422E0,4.153882619E-4,1.429418102E-3,-6.902758032E-4,1.640812056E-3
4.979862211E0,4.153882619E-4,1.429418102E-3,-7.941015065E-5,1.490667465E-3
4.989836105E0,1.111774123E-3,9.285109118E-4,4.031695426E-4,1.503569052E-3
4.999872552E0,5.009088200E-4,1.539376564E-3,-2.076961100E-4,1.632092990E-3
5.010037776E0,5.009088200E-4,1.539376564E-3,4.031695426E-4,1.668273219E-3
5.019950888E0,-1.099563669E-4,9.285109118E-4,4.031695426E-4,1.018218344E-3
5.029900944E0,-7.208215538E-4,-1.514949836E-3,-8.185617626E-4,1.866735138E-3
5.039900472E0,5.009088200E-4,-1.514949836E-3,-8.185617626E-4,1.793328194E-3
5.049894236E0,-7.208215538E-4,3.176461905E-4,-8.185617626E-4,1.136013281E-3
5.059878118E0,-7.208215538E-4,-2.932194620E-4,-2.076961100E-4,8.054185493E-4
5.069879559E0,-1.099563669E-4,-1.514949836E-3,-8.185617626E-4,1.725458422E-3
5.079889279E0,-1.331686974E-3,-2.932194620E-4,-8.185617626E-4,1.590412276E-3
5.089902139E0,5.009088200E-4,-1.514949836E-3,-2.076961100E-4,1.609074369E-3
5.099882569E0,-1.099563669E-4,-2.932194620E-4,-2.076961100E-4,3.757735085E-4
5.109848284E0,5.009088200E-4,-2.932194620E-4,4.031695426E-4,7.067057230E-4
5.119885142E0,-7.208215538E-4,9.285109118E-4,-2.076961100E-4,1.193672442E-3
5.129874571E0,-1.099563669E-4,3.176461905E-4,-2.076961100E-4,3.951293195E-4
5.139860785E0,-1.099563669E-4,9.285109118E-4,-2.076961100E-4,9.577894288E-4
5.149844892E0,5.009088200E-4,-2.932194620E-4,-2.076961100E-4,6.164616557E-4
5.159841446E0,-1.099563669E-4,3.176461905E-4,-8.185617626E-4,8.848914420E-4
5.169889223E0,-1.099563669E-4,1.539376564E-3,4.031695426E-4,1.595091311E-3
5.179879111E0,5.009088200E-4,3.176461905E-4,-8.185617626E-4,1.010867008E-3
5.189881055E0,-1.099563669E-4,3.176461905E-4,-2.076961100E-4,3.951293195E-4
5.199888527E0,-1.099563669E-4,-2.932194620E-4,-2.076961100E-4,3.757735085E-4
5.209862263E0,5.009088200E-4,9.285109118E-4,-2.076961100E-4,1.075258031E-3
5.219876131E0,1.111774123E-3,2.761106938E-3,4.031695426E-4,3.003714185E-3
5.229847065E0,1.111774123E-3,2.761106938E-3,-2.076961100E-4,2.983771254E-3
5.239849032E0,5.009088200E-4,3.176461905E-4,-2.076961100E-4,6.284476290E-4
5.249850016E0,-1.099563669E-4,9.285109118E-4,-8.185617626E-4,1.242685107E-3
5.259870508E0,5.009088200E-4,2.150241286E-3,-8.185617626E-4,2.354674201E-3
5.269846754E0,5.009088200E-4,1.539376564E-3,-8.185617626E-4,1.814010257E-3
5.279846377E0,1.111774123E-3,4.593702964E-3,-8.185617626E-4,4.796685521E-3
5.289826688E0,1.722639427E-3,7.648028899E-3,-2.076961100E-4,7.842382948E-3
5.299834344E0,5.009088200E-4,2.761106938E-3,-2.076961100E-4,2.813851248E-3
5.309827172E0,5.009088200E-4,2.761106938E-3,-2.076961100E-4,2.813851248E-3
5.319833586E0,-1.099563669E-4,3.176461905E-4,-2.076961100E-4,3.951293195E-4
5.329822293E0,-7.208215538E-4,-2.125815488E-3,-2.076961100E-4,2.254287665E-3
5.339849146E0,5.009088200E-4,2.761106938E-3,-2.076961100E-4,2.813851248E-3
5.349830073E0,5.009088200E-4,9.480624460E-3,-2.076961100E-4,9.496119600E-3
5.359839536E0,5.387830548E-3,1.681100763E-2,4.031695426E-4,1.765789459E-2
5.369876768E0,1.149648242E-2,3.208263963E-2,-2.076961100E-4,3.408090391E-2
5.379879384E0,1.455080882E-2,4.307821393E-2,-2.076961100E-4,4.546978876E-2
5.389914692E0,1.455080882E-2,4.552167282E-2,-2.076961100E-4,4.779112753E-2
5.399909846E0,1.332907937E-2,4.368907958E-2,-2.076961100E-4,4.567760030E-2
5.409867923E0,9.053021669E-3,2.902831137E-2,-2.076961100E-4,3.040794633E-2
5.419854461E0,6.609561387E-3,1.986533403E-2,-2.076961100E-4,2.093707085E-2
5.429858230E0,1.027475297E-2,3.025004268E-2,-8.185617626E-4,3.195787343E-2
5.439839615E0,1.699427143E-2,5.163032562E-2,-3.872888163E-3,5.449307339E-2
5.449853807E0,2.798984572E-2,9.072570503E-2,-1.364673208E-2,9.592089612E-2
5.459863403E0,3.470936045E-2,1.169929132E-1,-8.759809658E-3,1.223471115E-1
5.469855701E0,1.577254012E-2,4.857600108E-2,2.846630290E-3,5.115177618E-2
5.479925350E0,7.831292227E-3,1.558927726E-2,8.955283090E-3,1.960999232E-2
5.489898175E0,7.831292227E-3,1.925446838E-2,6.511820480E-3,2.178227483E-2
5.499910087E0,7.831292227E-3,1.986533403E-2,4.068359733E-3,2.173734540E-2
5.509859043E0,7.831292227E-3,2.230879478E-2,4.031695426E-4,2.364686043E-2
5.519878021E0,1.027475297E-2,2.719571814E-2,8.955283090E-3,3.041997254E-2
5.529858510E0,9.053021669E-3,2.536312118E-2,3.457494080E-3,2.715141585E-2
5.539892755E0,9.053021669E-3,2.414138988E-2,1.014033332E-3,2.580294886E-2
5.549859877E0,8.442156948E-3,2.963917702E-2,9.566146880E-3,3.226859146E-2
5.559853438E0,8.442156948E-3,2.658485249E-2,1.567480154E-2,3.199568407E-2
5.569854719E0,2.127032727E-2,1.314581651E-2,1.017701253E-2,2.699649788E-2
5.579850859E0,4.142887890E-2,1.009149011E-2,-1.429427415E-3,4.266419392E-2
5.589835929E0,6.036570296E-2,2.150241286E-3,-5.705483258E-3,6.067284541E-2
5.599887464E0,8.357858658E-2,-9.040841833E-4,-8.185617626E-4,8.358748439E-2
5.609870232E0,1.171761751E-1,-3.958410583E-3,1.017701253E-2,1.176838843E-1
5.619867616E0,1.428325176E-1,-2.736680210E-3,2.789210342E-2,1.455561299E-1
5.629842308E0,1.483303010E-1,1.375668123E-2,3.827681392E-2,1.538058483E-1
5.639826654E0,1.501628906E-1,2.414138988E-2,2.422691323E-2,1.540085833E-1
5.649849827E0,1.513846219E-1,1.131322049E-2,2.361604758E-2,1.536327126E-1
5.659854413E0,1.361130029E-1,3.176461905E-4,3.338988870E-2,1.401489748E-1
5.669857206E0,1.122892499E-1,-2.736680210E-3,3.766594827E-2,1.184697798E-1
5.679842103E0,1.031262726E-1,-5.180141889E-3,4.499632865E-2,1.126345043E-1
5.689903051E0,1.147327125E-1,-1.128879283E-2,5.843536556E-2,1.292506252E-1
5.699894525E0,1.293934733E-1,-1.128879283E-2,5.599190295E-2,1.414397432E-1
5.709856262E0,1.422216445E-1,-2.932194620E-4,4.743979126E-2,1.499253679E-1
5.719848131E0,1.825387478E-1,5.204567686E-3,3.461162001E-2,1.858640530E-1
5.729864565E0,2.747793794E-1,9.480624460E-3,-2.040293068E-3,2.749504544E-1
5.739854782E0,5.673838854E-1,1.070235483E-2,-1.016113311E-1,5.765100835E-1
5.749827391E0,6.938329935E-1,7.648028899E-3,-1.480370909E-1,7.094911525E-1
5.759838695E0,7.830193043E-1,3.982837312E-3,-1.681956351E-1,8.008900458E-1
5.769833347E0,8.367754221E-1,-3.347544931E-3,-1.736934334E-1,8.546190507E-1
5.779852173E0,8.599883318E-1,-6.401871331E-3,-1.700282395E-1,8.766587232E-1
5.789817586E0,8.618209362E-1,9.285109118E-4,-1.517022848E-1,8.750712951E-1
5.799844293E0,8.575448394E-1,7.648028899E-3,-1.254350692E-1,8.667038713E-1
5.809822646E0,8.612100482E-1,9.480624460E-3,-1.028330624E-1,8.673795410E-1
5.819857823E0,8.722056150E-1,6.426298525E-3,-9.550267458E-2,8.774421309E-1
5.829846911E0,8.844229579E-1,2.150241286E-3,-8.756142855E-2,8.887494561E-1
5.839863955E0,8.850337863E-1,5.204567686E-3,-6.862460077E-2,8.877055966E-1
5.849843977E0,8.691512942E-1,1.803273708E-2,-4.541172460E-2,8.705236221E-1
5.859869988E0,8.532688022E-1,2.475225553E-2,-2.647490241E-2,8.540381978E-1
5.869852994E0,8.441058397E-1,3.819129243E-2,-9.981540032E-3,8.450283277E-1
5.879879997E0,8.343319893E-1,5.529551581E-2,-3.872888163E-3,8.361713112E-1
5.889855498E0,8.166168928E-1,7.789753377E-2,-9.370675310E-3,8.203773430E-1
5.899839749E0,8.050104380E-1,9.011483938E-2,-1.181413606E-2,8.101247208E-1
5.909834874E0,8.135625720E-1,9.255830199E-2,-9.370675310E-3,8.188644011E-1
5.919846937E0,8.306667805E-1,9.561263025E-2,-6.927214563E-3,8.361800413E-1
5.929846968E0,8.447166681E-1,9.316916764E-2,-3.262022510E-3,8.498455060E-1
5.939857984E0,8.618209362E-1,7.973013073E-2,4.679225385E-3,8.655137867E-1
5.949829492E0,8.880881071E-1,5.834984407E-2,1.872912608E-2,8.901999609E-1
5.959832246E0,9.051923752E-1,3.635869548E-2,3.033556603E-2,9.064300510E-1
5.969827623E0,8.593774438E-1,3.635869548E-2,7.309613377E-2,8.632465409E-1
5.979844811E0,8.080647588E-1,3.330437094E-2,9.264381975E-2,8.140397489E-1
5.989824405E0,7.543086410E-1,5.285205692E-2,1.066937149E-1,7.636480960E-1
5.999838202E0,7.188784480E-1,5.712811276E-2,1.128023714E-1,7.299138437E-1
6.009840101E0,7.042176723E-1,5.468465015E-2,1.146349609E-1,7.155795660E-1
6.019843050E0,6.993307471E-1,5.712811276E-2,1.109697819E-1,7.103811707E-1
6.029844025E0,7.109372020E-1,5.163032562E-2,9.997420013E-2,7.197862435E-1
6.039835512E0,7.451456785E-1,3.696956113E-2,9.691987932E-2,7.523312393E-1
6.049816756E0,7.866845131E-1,2.291966043E-2,9.264381975E-2,7.924523401E-1
6.059891878E0,8.141734600E-1,3.513696417E-2,8.470257372E-2,8.193213992E-1
6.069858439E0,8.318884969E-1,2.230879478E-2,6.393314898E-2,8.346398032E-1
6.079869219E0,8.514361978E-1,-8.845332079E-3,3.705508262E-2,8.522880487E-1
6.089874609E0,8.648752570E-1,-3.144734725E-2,3.338988870E-2,8.660906595E-1
6.099858804E0,8.642643690E-1,-4.305378720E-2,4.805065691E-2,8.666691374E-1
6.109902902E0,8.471601605E-1,-3.694513440E-2,5.904623121E-2,8.500186692E-1
6.119887951E0,8.160060048E-1,-3.022561595E-2,5.538103729E-2,8.184414744E-1
6.129852475E0,7.799649835E-1,-5.099503323E-2,3.461162001E-2,7.823962123E-1
6.139841737E0,7.365935445E-1,-3.511253744E-2,1.811826043E-2,7.376525005E-1
6.149853868E0,6.773396134E-1,-4.569276236E-3,4.621805996E-2,6.789299959E-1
6.159844434E0,6.382442713E-1,-4.061032459E-2,6.820920855E-2,6.431620670E-1
6.169812217E0,6.241943240E-1,-8.398175240E-2,7.798305154E-2,6.346281157E-1
6.179842608E0,6.193073988E-1,-1.230771318E-1,7.187440246E-2,6.354963134E-1
6.189836304E0,6.248052120E-1,-1.279640645E-1,5.965709686E-2,6.405586031E-1
6.199837652E0,6.590136886E-1,-3.633426875E-2,5.843536556E-2,6.625963422E-1
6.209848826E0,7.084937692E-1,-3.633426875E-2,5.660276860E-2,7.116793333E-1
6.219829413E0,7.659150958E-1,2.536312118E-2,7.065267116E-2,7.695849673E-1
6.229857706E0,8.117299676E-1,2.536312118E-2,8.103737980E-2,8.161592278E-1
6.239862853E0,8.434949517E-1,2.169792913E-2,8.348084241E-2,8.478936164E-1
6.249834926E0,8.581557274E-1,2.291966043E-2,7.431786507E-2,8.616726225E-1
6.259845463E0,8.599883318E-1,2.780658193E-2,7.126353681E-2,8.633838246E-1
6.269840231E0,8.422732353E-1,3.452609852E-2,7.553958893E-2,8.463583661E-1
6.279863615E0,8.160060048E-1,3.696956113E-2,7.920478284E-2,8.206740802E-1
6.289856307E0,7.891279459E-1,3.880215809E-2,8.042651415E-2,7.941643071E-1
6.299842653E0,7.604172826E-1,3.635869548E-2,7.920478284E-2,7.653951894E-1
6.309854326E0,7.420913577E-1,3.086090833E-2,7.615045458E-2,7.466263259E-1
6.319887163E0,7.457565069E-1,3.452609852E-2,7.615045458E-2,7.504290178E-1
6.329885081E0,7.604172826E-1,3.758042678E-2,8.042651415E-2,7.655815804E-1
6.339864040E0,7.793540955E-1,4.063475132E-2,8.714602888E-2,7.852632804E-1
6.349822520E0,7.982909083E-1,4.185648263E-2,9.264381975E-2,8.047379802E-1
6.359835760E0,8.080647588E-1,4.307821393E-2,9.936333448E-2,8.152898007E-1
6.369836880E0,8.263907433E-1,6.262589991E-2,1.073045880E-1,8.356781309E-1
6.379852440E0,8.764817119E-1,8.217359334E-2,1.250196695E-1,8.891583708E-1
6.389844720E0,9.424551129E-1,7.911926508E-2,1.372369826E-1,9.556754090E-1
6.399835360E0,1.018813252E0,7.239974290E-2,1.384587139E-1,1.030724494E0
6.409847680E0,1.097614884E0,6.751282513E-2,1.311283261E-1,1.107479595E0
6.419848340E0,1.140986323E0,4.857600108E-2,8.531343937E-2,1.145202079E0
6.429832170E0,1.142818928E0,1.620014198E-2,5.354844034E-2,1.144187477E0
6.439845585E0,1.140375495E0,8.869759738E-3,4.010941088E-2,1.141115116E0
6.449828292E0,1.175194740E0,7.037163712E-3,3.033556603E-2,1.175607267E0
6.459841646E0,1.204516292E0,4.063475132E-2,4.438546300E-2,1.206018553E0
6.469821323E0,1.234448671E0,8.258894086E-3,4.866152257E-2,1.235435015E0
6.479846661E0,1.253996372E0,2.047619969E-2,3.949854523E-2,1.254785365E0
6.489824330E0,1.290648341E0,1.803273708E-2,2.972470038E-2,1.291116524E0
6.499850165E0,1.316915512E0,-1.128879283E-2,3.216816485E-2,1.317356707E0
6.509876082E0,1.338295817E0,2.963917702E-2,3.338988870E-2,1.339040351E0
6.519889041E0,1.324856758E0,3.513696417E-2,4.743979126E-2,1.326171395E0
6.529874020E0,1.304698229E0,-1.006706338E-2,3.400075436E-2,1.305180013E0
6.539869010E0,1.291259170E0,-1.312138978E-2,6.511820480E-3,1.291342254E0
6.549849005E0,1.288815737E0,-5.180141889E-3,-6.316348910E-3,1.288841625E0
6.559843002E0,1.286372304E0,-3.816686571E-2,-6.316348910E-3,1.286953888E0
6.569846501E0,1.287593961E0,-6.382320076E-2,-3.262022510E-3,1.289178905E0
6.579841750E0,1.273544073E0,-1.016968489E-1,6.511820480E-3,1.277614636E0
6.589876375E0,1.250331163E0,-1.615616530E-1,9.566146880E-3,1.260762348E0
6.599863187E0,1.211235881E0,-1.853853911E-1,1.628566347E-2,1.225449030E0
6.609841093E0,1.173973083E0,-1.359053105E-1,-3.262022510E-3,1.181817962E0
6.619837046E0,1.153814554E0,-4.305378720E-2,-2.830749750E-2,1.154964488E0
6.629840023E0,1.139764667E0,8.889310807E-2,-3.624874353E-2,1.143800442E0
6.639885011E0,1.115329981E0,1.640295237E-1,-2.952922881E-2,1.127713894E0
6.649905505E0,1.040193558E0,-4.122119024E-2,1.567480154E-2,1.041128005E0
6.659857752E0,1.012093782E0,-7.787310332E-2,2.056172304E-2,1.015293469E0
6.669871876E0,9.791070223E-1,-1.426248252E-1,2.728123777E-2,9.898164819E-1
6.679882438E0,9.644463062E-1,-1.853853911E-1,2.911383472E-2,9.825334784E-1
6.689839719E0,9.962112904E-1,-1.914940476E-1,2.178345062E-2,1.014682918E0
6.699837859E0,1.062795639E0,-1.798876077E-1,4.068359733E-3,1.077919604E0
6.709890429E0,1.122660398E0,-1.108598262E-1,-2.158798091E-2,1.128327219E0
6.719866214E0,1.197185993E0,-2.106263861E-2,-7.412239164E-2,1.199663314E0
6.729848607E0,1.246055126E0,6.262589991E-2,-1.187155545E-1,1.253263246E0
6.739879303E0,1.252774715E0,1.298210770E-1,-1.174938232E-1,1.264951698E0
6.749874651E0,1.218566179E0,-4.488638416E-2,-6.801373512E-2,1.221287922E0
6.759877325E0,1.196575046E0,-1.267423332E-1,-4.174653441E-2,1.203992621E0
6.769871162E0,1.224674821E0,-1.126924232E-1,-4.968778044E-2,1.230852093E0
6.779869581E0,1.235059619E0,-1.200228110E-1,-4.663345590E-2,1.241753767E0
6.789862290E0,1.198407650E0,-1.285749227E-1,-2.586403675E-2,1.205562671E0
6.799864145E0,1.180692554E0,-1.035294458E-1,-6.007248908E-2,1.186744267E0
6.809865072E0,1.139153719E0,-1.188010797E-1,-5.029864609E-2,1.146435714E0
6.819864036E0,1.169697046E0,-1.640051156E-1,-5.701816082E-2,1.182514240E0
6.829862518E0,1.262548566E0,-1.627833843E-1,-5.396384001E-2,1.274142617E0
6.839858259E0,1.396327972E0,-1.023077145E-1,-5.579643697E-2,1.401182328E0
6.849835129E0,1.490401268E0,-1.670594364E-1,-3.258355334E-2,1.500088825E0
6.859860064E0,1.527053118E0,-8.153829724E-2,-4.174653441E-2,1.529798187E0
6.869902032E0,1.481849194E0,-1.554529965E-1,-2.464230731E-2,1.490184522E0
6.879887016E0,1.217955351E0,-3.572340310E-2,-5.094618537E-3,1.218489784E0
6.889843508E0,1.072569489E0,5.957157537E-2,3.094643168E-2,1.074668211E0
6.899842254E0,9.913243651E-1,5.773897842E-2,4.133114219E-2,9.938642009E-1
6.909850627E0,9.956004024E-1,8.278445899E-2,5.110498518E-2,1.000342515E0
6.919850313E0,1.021256804E0,9.683435410E-2,5.538103729E-2,1.027331209E0
6.929880656E0,1.049967408E0,1.108842567E-1,5.599190295E-2,1.057289918E0
6.939892828E0,1.068904281E0,1.340971291E-1,5.293757468E-2,1.078582768E0
6.949852914E0,1.073180318E0,1.304319352E-1,5.110498518E-2,1.082284715E0
6.959882957E0,1.071347713E0,1.133277193E-1,5.110498518E-2,1.078536422E0
6.969863478E0,1.071347713E0,1.316536665E-1,4.866152257E-2,1.080502918E0
6.979830739E0,1.083564997E0,1.328753978E-1,5.171585083E-2,1.092905990E0
6.989820369E0,1.093338847E0,1.463144422E-1,5.538103729E-2,1.104474902E0
6.999868184E0,1.096393228E0,2.043466270E-1,5.049411952E-2,1.116416280E0
7.009951092E0,1.088451982E0,2.538267374E-1,3.949854523E-2,1.118354087E0
7.019903546E0,1.070125937E0,2.238943279E-1,4.316373169E-2,1.094148664E0
7.029893273E0,1.029198050E0,1.029430106E-1,7.370699942E-2,1.036956418E0
7.039854136E0,9.534506798E-1,-6.015801057E-2,1.042502597E-1,9.610178467E-1
7.049865568E0,8.404406309E-1,-1.609507799E-1,8.653516322E-2,8.600778698E-1
7.059842284E0,8.404406309E-1,-6.809926033E-2,-1.181413606E-2,8.432778529E-1
7.069889142E0,8.874772787E-1,-6.382320076E-2,2.235764638E-3,8.897720606E-1
7.079870071E0,9.174096584E-1,-8.845332079E-3,1.262047328E-2,9.175390987E-1
7.089947035E0,9.540615678E-1,1.192408521E-2,2.117258869E-2,9.543709643E-1
7.099884517E0,9.784961939E-1,2.169792913E-2,1.872912608E-2,9.789159217E-1
7.109861758E0,9.827722311E-1,6.079330295E-2,2.422691323E-2,9.849487435E-1
7.119835879E0,9.760527015E-1,1.681100763E-2,4.377459735E-2,9.771784389E-1
7.129871439E0,9.742200971E-1,9.480624460E-3,4.621805996E-2,9.753618758E-1
7.139864719E0,9.693332314E-1,7.850839943E-2,4.805065691E-2,9.736936623E-1
7.149840359E0,9.638354182E-1,1.536448151E-1,5.782449991E-2,9.777162755E-1
7.159833679E0,9.760527015E-1,2.342790365E-1,6.087882817E-2,1.005620095E0
7.169811339E0,9.595593810E-1,2.739852667E-1,6.087882817E-2,9.997641541E-1
7.179810169E0,9.516181350E-1,3.088046014E-1,5.721363425E-2,1.002103167E0
7.189860084E0,9.491746426E-1,3.252979517E-1,5.782449991E-2,1.005034792E0
7.199832542E0,9.375681877E-1,3.106371760E-1,5.477017164E-2,9.892064160E-1
7.209786771E0,9.125227332E-1,3.020850718E-1,5.415930599E-2,9.627493753E-1
7.219813385E0,8.618209362E-1,2.831482589E-1,5.110498518E-2,9.085813019E-1
7.229831692E0,7.689694166E-1,2.263377756E-1,4.377459735E-2,8.027820176E-1
7.239836346E0,6.779505014E-1,1.683055907E-1,3.522248566E-2,6.994170986E-1
7.249865673E0,5.960945487E-1,1.169929132E-1,2.544864453E-2,6.079997420E-1
7.259854836E0,5.209581256E-1,6.934542209E-2,1.933999173E-2,5.259089194E-1
7.269825418E0,4.684236646E-1,8.706051111E-2,1.811826043E-2,4.767898211E-1
7.279863209E0,4.244413674E-1,1.249341592E-1,1.811826043E-2,4.428174453E-1
7.289825604E0,3.798482120E-1,1.414275169E-1,1.567480154E-2,4.056255738E-1
7.299804802E0,3.328115940E-1,1.084407941E-1,1.078787819E-2,3.501990023E-1
7.309797401E0,2.882184386E-1,5.651724711E-2,8.344417438E-3,2.938259636E-1
7.319844700E0,2.521773875E-1,2.597398683E-2,6.511820480E-3,2.535951233E-1
7.329917850E0,1.971995234E-1,-9.040841833E-4,4.031695426E-4,1.972020080E-1
7.339870425E0,1.666562557E-1,-3.347544931E-3,4.031695426E-4,1.666903602E-1
7.349850712E0,1.324478090E-1,-2.289523557E-2,-2.076961100E-4,1.344122653E-1
7.359849856E0,1.129001155E-1,-9.192300588E-2,2.235764638E-3,1.456065718E-1
7.369825428E0,9.946107864E-2,-7.054272294E-2,1.014033332E-3,1.219418312E-1
7.379816214E0,9.396329522E-2,-5.954715237E-2,1.014033332E-3,1.112474380E-1
7.389798107E0,8.663290739E-2,-7.298617810E-2,-2.076961100E-4,1.132796803E-1
7.399796553E0,7.502646744E-2,-9.497732669E-2,-2.651156858E-3,1.210648258E-1
7.409795776E0,5.120272189E-2,-9.558819234E-2,-3.872888163E-3,1.085072371E-1
7.419865388E0,1.699427143E-2,-1.267423332E-1,-4.483753815E-3,1.279551809E-1
7.429850194E0,-1.782504842E-2,-1.560638547E-1,-5.094618537E-3,1.571611092E-1
7.439860097E0,-4.042706266E-2,-1.963809729E-1,-6.927214563E-3,2.006185939E-1
7.449819048E0,-5.569869652E-2,-2.525805831E-1,-5.094618537E-3,2.586991513E-1
7.459821524E0,-7.402464747E-2,-2.189829797E-1,-5.094618537E-3,2.312123460E-1
7.469797762E0,-8.990714699E-2,-1.939375103E-1,-3.262022510E-3,2.137889000E-1
7.479808381E0,-9.051801264E-2,-2.183721215E-1,-3.262022510E-3,2.364117908E-1
7.489790190E0,-9.357233346E-2,-1.420139670E-1,-5.705483258E-3,1.701655105E-1
7.499803595E0,-9.845925868E-2,-7.909483463E-2,-4.483753815E-3,1.263737415E-1
7.509831297E0,-1.002918556E-1,-4.916244000E-2,-4.483753815E-3,1.117832987E-1
7.519829148E0,-9.112887830E-2,-1.923004165E-2,-6.316348910E-3,9.334968251E-2
7.529828074E0,-7.035945356E-2,-8.234468289E-3,-6.927214563E-3,7.117756300E-2
7.539826037E0,-4.348139092E-2,-9.456197731E-3,-5.094618537E-3,4.478846023E-2
7.549834018E0,-1.171639562E-2,-1.514949836E-3,-3.262022510E-3,1.225601037E-2
7.559849009E0,3.776368871E-2,-2.932194620E-4,1.014033332E-3,3.777843865E-2
7.569834004E0,4.570493475E-2,-1.514949836E-3,2.846630290E-3,4.581854905E-2
7.579836502E0,5.547877774E-2,-6.401871331E-3,1.624898985E-3,5.587055604E-2
7.589841751E0,7.197214663E-2,-5.466022715E-2,1.624898985E-3,9.039010244E-2
7.599823875E0,9.151983261E-2,-9.131214023E-2,1.014033332E-3,1.292857880E-1
7.609804937E0,1.177870408E-1,-9.558819234E-2,-1.429427415E-3,1.517001409E-1
7.619801968E0,1.483303010E-1,-9.742078930E-2,-8.185617626E-4,1.774636820E-1
7.629808484E0,1.690997183E-1,-7.359704375E-2,-8.185617626E-4,1.844231808E-1
7.639805242E0,1.721540391E-1,-5.771455541E-2,-8.185617626E-4,1.815727214E-1
7.650005621E0,1.550498158E-1,-3.511253744E-2,2.235764638E-3,1.589916171E-1
7.659894310E0,1.269500107E-1,-1.556485053E-2,5.900956690E-3,1.280366786E-1
7.669851655E0,9.579589218E-2,-7.012736984E-3,5.900956690E-3,9.623332442E-2
7.679861827E0,6.464175880E-2,-3.347544931E-3,4.679225385E-3,6.489728953E-2
7.689919413E0,2.737898007E-2,-3.958410583E-3,3.457494080E-3,2.787887784E-2
7.699878206E0,-6.829473656E-3,-6.401871331E-3,1.624898985E-3,9.500840156E-3
7.709838603E0,-3.309668228E-2,-7.623602636E-3,-8.185617626E-4,3.397322090E-2
7.719821301E0,-5.081177130E-2,9.285109118E-4,-2.040293068E-3,5.086119377E-2
7.729835650E0,-5.447696522E-2,2.761106938E-3,-2.651156858E-3,5.461128165E-2
7.739841825E0,-4.775744677E-2,2.761106938E-3,-2.651156858E-3,4.791060494E-2
7.749850412E0,-3.676187247E-2,2.150241286E-3,-3.872888163E-3,3.702780128E-2
7.759833706E0,-2.698802762E-2,9.285109118E-4,-4.483753815E-3,2.737370664E-2
7.769816853E0,-2.026850916E-2,-2.932194620E-4,-8.185617626E-4,2.028715073E-2
7.779805426E0,-2.149023861E-2,9.285109118E-4,-2.076961100E-4,2.151129065E-2
7.789790713E0,-8.051205426E-3,-2.932194620E-4,-1.429427415E-3,8.182368191E-3
7.799870356E0,5.387830548E-3,-2.125815488E-3,-8.185617626E-4,5.849602795E-3
7.809854678E0,1.455080882E-2,-2.736680210E-3,-8.185617626E-4,1.482853665E-2
7.819831839E0,2.249205858E-2,-5.180141889E-3,-8.185617626E-4,2.309538076E-2
7.829849419E0,2.798984572E-2,-3.572340310E-2,-8.185617626E-4,4.539012046E-2
7.839834209E0,3.104417212E-2,-9.375559539E-2,1.014033332E-3,9.876679884E-2
7.849814604E0,2.432465367E-2,-1.218554005E-1,-2.040293068E-3,1.242762656E-1
7.859793802E0,2.188119292E-2,-1.200228110E-1,-2.040293068E-3,1.220181321E-1
7.869790401E0,2.982244082E-2,-8.703608066E-2,-2.040293068E-3,9.202619251E-2
7.879805700E0,4.509406909E-2,-6.809926033E-2,-2.651156858E-3,8.171911011E-2
7.889799850E0,6.097656861E-2,-8.276002109E-2,-2.651156858E-3,1.028318610E-1
7.899801925E0,7.502646744E-2,-1.004751176E-1,-2.651156858E-3,1.254242748E-1
7.909798462E0,7.380474359E-2,-1.108598262E-1,-2.076961100E-4,1.331806457E-1
7.919816731E0,5.608964339E-2,-9.497732669E-2,1.014033332E-3,1.103076105E-1
7.929817365E0,3.532022610E-2,-6.199060753E-2,1.624898985E-3,7.136521625E-2
7.939810682E0,2.432465367E-2,-3.633426875E-2,-2.076961100E-4,4.372540451E-2
7.949809841E0,2.432465367E-2,-1.312138978E-2,-2.076961100E-4,2.763879129E-2
7.959806920E0,2.737898007E-2,3.176461905E-4,-2.076961100E-4,2.738161037E-2
7.969858960E0,2.982244082E-2,9.285109118E-4,4.031695426E-4,2.983961552E-2
7.979834980E0,3.532022610E-2,9.285109118E-4,1.014033332E-3,3.534697679E-2
7.989837490E0,4.631580040E-2,9.285109118E-4,1.624898985E-3,4.635359528E-2
7.999836745E0,5.731137469E-2,9.285109118E-4,2.846630290E-3,5.738953830E-2
8.009821372E0,6.280916184E-2,3.176461905E-4,2.235764638E-3,6.284974426E-2
8.019824686E0,5.425705016E-2,-2.932194620E-4,2.846630290E-3,5.433246519E-2
8.029829343E0,4.570493475E-2,-2.932194620E-4,1.014033332E-3,4.571712263E-2
8.039875171E0,3.593109176E-2,-2.932194620E-4,-2.076961100E-4,3.593288842E-2
8.049886085E0,2.432465367E-2,-2.932194620E-4,4.031695426E-4,2.432976160E-2
8.059884042E0,1.455080882E-2,3.176461905E-4,4.031695426E-4,1.455985859E-2
8.069896521E0,4.166100174E-3,9.285109118E-4,4.031695426E-4,4.287314877E-3
8.082911760E0,-2.553417347E-3,1.539376564E-3,-2.076961100E-4,2.988771994E-3
8.099869000E0,-3.164282534E-3,9.285109118E-4,1.014033332E-3,3.450084067E-3
8.109877000E0,-7.208215538E-4,9.285109118E-4,-2.076961100E-4,1.193672442E-3
8.119866000E0,2.944369800E-3,-2.932194620E-4,-2.076961100E-4,2.966214565E-3
8.129829000E0,-1.331686974E-3,9.285109118E-4,1.624898985E-3,2.296915197E-3
8.139864000E0,1.111774123E-3,2.150241286E-3,4.031695426E-4,2.454001827E-3
8.149873000E0,1.699427143E-2,9.285109118E-4,-8.185617626E-4,1.703929098E-2
8.159926000E0,2.432465367E-2,-9.040841833E-4,-8.185617626E-4,2.435520864E-2
8.169874000E0,2.310292423E-2,3.176461905E-4,-1.429427415E-3,2.314928227E-2
8.179810000E0,2.004859783E-2,-9.040841833E-4,-8.185617626E-4,2.008565873E-2
8.189826000E0,1.516167447E-2,-1.514949836E-3,-2.076961100E-4,1.523858863E-2
8.199828000E0,5.387830548E-3,-9.040841833E-4,-2.076961100E-4,5.467103794E-3
8.215947000E0,-1.965764351E-2,-1.514949836E-3,-2.076961100E-4,1.971702714E-2
8.229853000E0,-2.637716196E-2,-1.514949836E-3,-8.185617626E-4,2.643330834E-2
8.239849000E0,-2.637716196E-2,-2.736680210E-3,-8.185617626E-4,2.653138020E-2
8.249813000E0,-8.051205426E-3,-3.999946266E-2,-2.076961100E-4,4.080223107E-2
8.259794000E0,5.387830548E-3,-9.680992365E-2,-2.076961100E-4,9.695995654E-2
8.269800000E0,2.737898007E-2,-9.803165495E-2,-1.429427415E-3,1.017932080E-1
8.279797000E0,4.081801325E-2,-9.680992365E-2,-2.040293068E-3,1.050829878E-1
8.289868000E0,5.059185624E-2,-9.864252061E-2,-8.185617626E-4,1.108627658E-1
8.299991000E0,5.364618450E-2,-9.803165495E-2,-2.076961100E-4,1.117504435E-1
8.309878000E0,4.509406909E-2,-1.053620353E-1,1.014033332E-3,1.146109149E-1
8.319797000E0,2.860071138E-2,-1.059729010E-1,4.031695426E-4,1.097652904E-1
8.329811000E0,2.249205858E-2,-8.581434935E-2,-1.429427415E-3,8.872450911E-2
8.339795000E0,2.737898007E-2,-6.199060753E-2,-2.651156858E-3,6.781941171E-2
8.349909000E0,3.532022610E-2,-7.665137202E-2,4.031695426E-4,8.439854116E-2
8.359834000E0,4.142887890E-2,-1.010859832E-1,4.031695426E-4,1.092469247E-1
8.369858000E0,4.631580040E-2,-1.053620353E-1,1.014033332E-3,1.150970900E-1
8.379832000E0,4.692666605E-2,-1.035294458E-1,4.031695426E-4,1.136689082E-1
8.389841000E0,4.875926301E-2,-1.071946323E-1,1.014033332E-3,1.177674963E-1
8.399887000E0,4.814839736E-2,-1.267423332E-1,2.235764638E-3,1.355982516E-1
8.409842000E0,3.837455437E-2,-1.481226087E-1,1.624898985E-3,1.530214165E-1
8.419837000E0,2.737898007E-2,-1.511769444E-1,1.624898985E-3,1.536447765E-1
8.429839000E0,1.760513522E-2,-1.572855860E-1,1.014033332E-3,1.582710479E-1
8.439839000E0,1.638340577E-2,-1.542312652E-1,-8.185617626E-4,1.551011579E-1
8.449916000E0,2.676811442E-2,-1.438465565E-1,-1.429427415E-3,1.463229546E-1
8.459900000E0,2.982244082E-2,-1.554529965E-1,-2.076961100E-4,1.582878872E-1
8.469837000E0,2.127032727E-2,-1.652268469E-1,-8.185617626E-4,1.665923402E-1
8.479814000E0,-1.477072202E-2,-1.823310703E-1,-8.185617626E-4,1.829302148E-1
8.489827000E0,-2.515543066E-2,-2.000461519E-1,-8.185617626E-4,2.016232343E-1
8.499856000E0,-2.332283556E-2,-2.281459570E-1,-2.076961100E-4,2.293350725E-1
8.509845000E0,-2.210110426E-2,-2.385306656E-1,-2.651156858E-3,2.395670384E-1
8.519916000E0,-1.538158767E-2,-2.629652917E-1,-1.429427415E-3,2.634186424E-1
8.529877000E0,1.722639427E-3,-3.326039314E-1,-1.429427415E-3,3.326114639E-1
8.539892000E0,2.249205858E-2,-4.065186083E-1,-1.429427415E-3,4.071428679E-1
8.549888000E0,1.332907937E-2,-4.016316831E-1,-4.483753815E-3,4.018778139E-1
8.559897000E0,1.882686652E-2,-4.309532344E-1,-3.872888163E-3,4.313816645E-1
8.569833000E0,4.387234151E-2,-5.555697083E-1,-4.483753815E-3,5.573173129E-1
8.580076000E0,7.075041533E-2,-7.363858223E-1,-4.483753815E-3,7.397903788E-1
8.589849000E0,8.174598962E-2,-8.964325190E-1,-2.651156858E-3,9.001559290E-1
8.599803000E0,8.235685527E-2,-1.041207552E0,1.078787819E-2,1.044515292E0
8.609865000E0,6.403089315E-2,-1.085189819E0,2.235764638E-3,1.087079527E0
8.619814000E0,2.554638498E-2,-1.025935888E0,1.624898985E-3,1.026255185E0
8.629801000E0,-1.110552996E-2,-9.471343160E-1,-8.185617626E-4,9.471997758E-1
8.639811000E0,-2.943148650E-2,-8.799391389E-1,-1.120327134E-2,8.805024780E-1
8.649834000E0,-2.149023861E-2,-9.214779735E-1,1.014033332E-3,9.217290894E-1
8.659846000E0,-1.232726127E-2,-9.685146213E-1,1.624898985E-3,9.685944318E-1
8.670091000E0,-3.164282534E-3,-9.758449793E-1,-6.927214563E-3,9.758746961E-1
8.679786000E0,2.944369800E-3,-9.880622625E-1,-8.185617626E-4,9.880669886E-1
8.689835000E0,6.609561387E-3,-9.526321292E-1,-6.316348910E-3,9.526759975E-1
8.699858000E0,1.516167447E-2,-9.795101881E-1,-2.651156858E-3,9.796311110E-1
8.709853000E0,1.699427143E-2,-9.562972784E-1,-7.538079284E-3,9.564779729E-1
8.719814000E0,7.831292227E-3,-9.440799952E-1,-8.148944937E-3,9.441476430E-1
8.729793000E0,6.609561387E-3,-9.911166430E-1,1.078787819E-2,9.911973893E-1
8.739781000E0,2.944369800E-3,-9.770666957E-1,3.457494080E-3,9.770772495E-1
8.749865000E0,1.027475297E-2,-9.575190544E-1,-5.094618537E-3,9.575877324E-1
8.759883000E0,1.149648242E-2,-9.917274714E-1,2.235764638E-3,9.917966249E-1
8.769876000E0,5.998696201E-3,-9.446908832E-1,-1.059240568E-2,9.447693095E-1
8.779871000E0,1.760513522E-2,-9.336953163E-1,-6.927214563E-3,9.338869690E-1
8.789816000E0,2.310292423E-2,-8.988759518E-1,-8.148944937E-3,8.992097236E-1
8.799838000E0,2.554638498E-2,-8.872695565E-1,-7.538079284E-3,8.876692550E-1
8.809798000E0,2.676811442E-2,-8.866586685E-1,-4.483753815E-3,8.870739712E-1
8.819843000E0,2.065946162E-2,-9.190345407E-1,1.262047328E-2,9.193533470E-1
8.829799000E0,6.609561387E-3,-9.257540703E-1,-2.651156858E-3,9.257814610E-1
8.839793000E0,4.776965827E-3,-9.850079417E-1,7.733551785E-3,9.850498832E-1
8.849789000E0,1.210734807E-2,-1.059533477E0,1.017701253E-2,1.059651522E0
8.859829000E0,1.111774123E-3,-1.076637745E0,-3.872888163E-3,1.076645285E0
8.869799000E0,-2.515543066E-2,-1.064420462E0,-2.040293068E-3,1.064719624E0
8.879793000E0,-7.585724443E-2,-1.050981402E0,-1.120327134E-2,1.053774996E0
8.889812000E0,-1.106765643E-1,-1.068696499E0,-1.059240568E-2,1.074464382E0
8.900146000E0,-9.907012433E-2,-1.093742013E0,-5.094618537E-3,1.098231504E0
8.909863000E0,-6.180734560E-2,-1.107181072E0,3.457494080E-3,1.108910289E0
8.919753000E0,-6.241821125E-2,-1.111457109E0,4.031695426E-4,1.113208472E0
8.929779000E0,-1.418306977E-1,-1.077248573E0,-1.731192321E-2,1.086683090E0
8.939832000E0,-1.473284811E-1,-1.102294087E0,-1.731192321E-2,1.112230929E0
8.949786000E0,-1.308351159E-1,-1.110235333E0,-1.120327134E-2,1.117973987E0
8.959826000E0,-1.210612729E-1,-1.131004810E0,-1.303586643E-2,1.137540174E0
8.969829000E0,-1.516045332E-1,-1.149330735E0,-1.792278886E-2,1.159424987E0
8.979777000E0,-1.778717339E-1,-1.160937190E0,-2.280971035E-2,1.174705834E0
8.989832000E0,-1.668761671E-1,-1.159715414E0,-1.792278886E-2,1.171797219E0
8.999760000E0,-1.173960790E-1,-1.132226467E0,-1.609019190E-2,1.138410078E0
9.009795000E0,-1.247264594E-1,-1.074194312E0,-2.891836315E-2,1.081797754E0
9.019768000E0,-1.235047281E-1,-1.075415969E0,-2.952922881E-2,1.082887298E0
9.029832000E0,-1.100656986E-1,-1.076026917E0,-2.464230731E-2,1.081922191E0
9.039791000E0,-8.929628134E-2,-1.022270799E0,-3.136182576E-2,1.026642575E0
9.049900000E0,-6.302907318E-2,-9.697363377E-1,-3.136182576E-2,9.722884308E-1
9.059988000E0,-1.110552996E-2,-9.324735403E-1,-2.403144166E-2,9.328492624E-1
9.069873000E0,3.776368871E-2,-9.208671451E-1,-1.731192321E-2,9.218037197E-1
9.079780000E0,7.258301228E-2,-9.648494124E-1,-1.609019190E-2,9.677094485E-1
9.089815000E0,7.502646744E-2,-1.003944755E0,-2.097711526E-2,1.006962800E0
9.099774000E0,6.891781837E-2,-1.074805140E0,-2.097711526E-2,1.077216689E0
9.109793000E0,3.409849480E-2,-1.195145607E0,-1.853365451E-2,1.195775575E0
9.119839000E0,-4.164879397E-2,-1.309377432E0,-2.952922881E-2,1.310372411E0
9.129830000E0,-6.119647995E-2,-1.426052690E0,-3.136182576E-2,1.427709651E0
9.139889000E0,-8.807455003E-2,-1.498745680E0,-4.357913136E-2,1.501963675E0
9.149791000E0,-6.913772970E-2,-1.547614813E0,-3.930307180E-2,1.549656854E0
9.159797000E0,4.081801325E-2,-1.586099386E0,-3.380528465E-2,1.586984616E0
9.169822000E0,9.640675783E-2,-1.583655953E0,-1.914451830E-2,1.586703171E0
9.179774000E0,-1.099563669E-4,-1.512184620E0,-4.235740006E-2,1.512777739E0
9.190018000E0,-1.271699220E-1,-1.577547312E0,-4.541172460E-2,1.583316120E0
9.199778000E0,-1.955868304E-1,-1.853047490E0,-5.579643697E-2,1.864176078E0
9.209891000E0,-2.181888521E-1,-2.082732916E0,-6.373768300E-2,2.095100300E0
9.219792000E0,-1.760391444E-1,-2.115108728E0,-6.740287691E-2,2.123491903E0
9.229848000E0,-1.070113704E-1,-2.025311708E0,-7.656585425E-2,2.029581553E0
9.239975000E0,-5.386609957E-2,-1.880536437E0,-6.129422039E-2,1.882305987E0
9.249818000E0,-2.943148650E-2,-1.788906574E0,-7.106806338E-2,1.790559581E0
9.259785000E0,6.830695271E-2,-1.794404387E0,-5.946162343E-2,1.796688240E0
9.269855000E0,1.568824202E-1,-1.882979870E0,-4.724431783E-2,1.890094524E0
9.279805000E0,1.245065555E-1,-1.937957764E0,-6.434854865E-2,1.943019020E0
9.289902000E0,1.025154069E-1,-2.029587746E0,-5.396384001E-2,2.032891518E0
9.299792000E0,4.387234151E-2,-2.124882698E0,-6.740287691E-2,2.126404103E0
9.309832000E0,1.760513522E-2,-2.137710810E0,-5.090951174E-2,2.138389400E0
9.319812000E0,1.882686652E-2,-2.105945826E0,-5.640730262E-2,2.106785242E0
9.329781000E0,-3.248581663E-2,-2.134045601E0,-6.740287691E-2,2.135356903E0
9.339888000E0,-5.630956218E-2,-2.192688704E0,-6.740287691E-2,2.194447007E0
9.349834000E0,-9.051801264E-2,-2.155425787E0,-8.878315985E-2,2.159151751E0
9.359847000E0,-1.099563669E-4,-2.121217489E0,-8.328536898E-2,2.122851879E0
9.369813000E0,1.953669190E-1,-2.112054348E0,-5.946162343E-2,2.121904212E0
9.379795000E0,3.346441984E-1,-2.213458061E0,-5.701816082E-2,2.239337938E0
9.390008000E0,3.328115940E-1,-2.468189001E0,-6.373768300E-2,2.491341605E0
9.399789000E0,3.138747811E-1,-2.561651230E0,-3.685960919E-2,2.581072070E0
9.409875000E0,2.332405746E-1,-2.585474968E0,-2.525317110E-2,2.596097012E0
9.419792000E0,5.364618450E-2,-2.400993824E0,-4.541172460E-2,2.402022373E0
9.429820000E0,-1.778717339E-1,-2.105945826E0,-5.213124305E-2,2.114086999E0
9.439922000E0,-2.572842240E-1,-1.771802425E0,-2.708576620E-2,1.790590027E0
9.449815000E0,-1.564914584E-1,-1.520736814E0,-2.647490241E-2,1.528996715E0
9.459859000E0,-4.775744677E-2,-1.427885294E0,-4.235740006E-2,1.429311490E0
9.469824000E0,1.393994503E-2,-1.482252240E0,-4.296826571E-2,1.482940423E0
9.479795000E0,1.562715471E-1,-1.697887659E0,-3.197269142E-2,1.705363760E0
9.489967000E0,2.601186335E-1,-1.943455577E0,-2.769663185E-2,1.960981485E0
9.499864000E0,2.271319181E-1,-2.108389378E0,-3.930307180E-2,2.120952476E0
9.509873000E0,1.581041515E-1,-2.163978100E0,-4.418999329E-2,2.170196050E0
9.519880000E0,1.300043464E-1,-2.082122087E0,-1.731192321E-2,2.086248600E0
9.529835000E0,4.509406909E-2,-1.828001976E0,-3.014009446E-2,1.828806475E0
9.539974000E0,4.203974456E-2,-1.645353317E0,-6.927214563E-3,1.645904877E0
9.549867000E0,-4.836831242E-2,-1.399785519E0,1.014033332E-3,1.400621298E0
9.559819000E0,-4.042706266E-2,-1.169489264E0,1.014033332E-3,1.170188239E0
9.569830000E0,-3.065321781E-2,-9.550755620E-1,-2.464230731E-2,9.558850308E-1
9.579875000E0,-5.936388671E-2,-8.121331334E-1,-1.429427415E-3,8.143011364E-1
9.589908000E0,-9.540493041E-2,-6.215431690E-1,4.010941088E-2,6.301006083E-1
9.599814000E0,-1.094548330E-1,-3.698666990E-1,7.981564850E-2,3.938937334E-1
9.609910000E0,-3.554014117E-2,-1.267423332E-1,3.094643168E-2,1.352198295E-1
9.619781000E0,1.332907937E-2,-2.257024944E-1,-7.290066034E-2,2.375579647E-1
9.629765000E0,6.708522141E-2,-4.486683011E-1,-2.103453428E-1,5.000488322E-1
9.639865000E0,7.869166136E-2,-6.209322810E-1,-2.891836315E-2,6.265664744E-1
9.649925000E0,4.937012866E-2,-6.856840253E-1,-3.808134049E-2,6.885130214E-1
9.659802000E0,7.808079571E-2,-8.151874542E-1,-1.609019190E-2,8.190763642E-1
9.669840000E0,6.464175880E-2,-9.110932946E-1,-1.609019190E-2,9.135252830E-1
9.679812000E0,1.269500107E-1,-8.982651234E-1,-1.486846246E-2,9.073134013E-1
9.689824000E0,1.373347193E-1,-6.429234147E-1,-3.872888163E-3,6.574392303E-1
9.699838000E0,1.300043464E-1,-4.169033170E-1,2.117258869E-2,4.372159470E-1
9.709855000E0,1.037371382E-1,-2.373089343E-1,4.377459735E-2,2.626654517E-1
9.719807000E0,5.792224035E-2,-8.845332079E-3,8.348084241E-2,1.019915530E-1
9.729846000E0,2.554638498E-2,7.850839943E-2,1.409021765E-1,1.633083277E-1
9.739814000E0,3.555234987E-3,2.353052422E-2,1.463999599E-1,1.483215208E-1
9.749771000E0,-2.149023861E-2,-5.527109280E-2,9.691987932E-2,1.136230041E-1
9.759867000E0,-3.615100682E-2,-1.035294458E-1,-2.586403675E-2,1.126684953E-1
9.769899000E0,-5.386609957E-2,-1.352944374E-1,-2.091236115E-1,2.548309760E-1
9.779881000E0,-8.379849046E-2,-1.450682878E-1,-2.842600346E-1,3.299556976E-1
9.789853000E0,-9.479406476E-2,-1.114706919E-1,6.511820480E-3,1.464719552E-1
9.799845000E0,-9.784839302E-2,-1.963809729E-1,-3.685960919E-2,2.224824157E-1
9.809796000E0,-8.440935612E-2,-3.258844018E-1,-6.316348910E-3,3.366979047E-1
9.819811000E0,-8.013330400E-2,-3.490972817E-1,-1.181413606E-2,3.583710819E-1
9.829812000E0,-7.952243835E-2,-4.089620709E-1,-1.547932811E-2,4.169093466E-1
9.839841000E0,-6.730513275E-2,-4.230119884E-1,9.566146880E-3,4.284397675E-1
9.849832000E0,-6.730513275E-2,-3.490972817E-1,1.811826043E-2,3.559875902E-1
9.859781000E0,-7.219205052E-2,-2.904542089E-1,1.017701253E-2,2.994643738E-1
9.869829000E0,-8.135503531E-2,-2.880107462E-1,-1.547932811E-2,2.996805655E-1
9.879768000E0,-8.257675916E-2,-3.093910515E-1,-4.296826571E-2,3.230913428E-1
9.889794000E0,-6.180734560E-2,-3.051149845E-1,-5.090951174E-2,3.154474285E-1
9.899774000E0,-2.882062271E-2,-2.043222189E-1,-1.609019190E-2,2.069712340E-1
9.909784000E0,-1.293812692E-2,-8.276002109E-2,-7.538079284E-3,8.410373867E-2
9.919782000E0,-2.553417347E-3,-2.778215706E-2,-2.040293068E-3,2.797375533E-2
9.929824000E0,3.555234987E-3,-2.289523557E-2,-2.040293068E-3,2.325928424E-2
9.939828000E0,6.609561387E-3,-3.511253744E-2,-2.040293068E-3,3.578741934E-2
9.949795000E0,1.722639427E-3,-6.504493207E-2,-2.040293068E-3,6.509971943E-2
9.959810000E0,1.393994503E-2,-4.732984304E-2,-2.076961100E-4,4.934044231E-2
9.969804000E0,3.898541629E-2,-1.067792904E-2,-8.185617626E-4,4.042957946E-2
9.979779000E0,6.403089315E-2,2.761106938E-3,-3.262022510E-3,6.417335724E-2
9.989827000E0,8.052425832E-2,3.982837312E-3,-3.262022510E-3,8.068866067E-2
9.999890000E0,9.518502653E-2,4.593702964E-3,-5.094618537E-3,9.543189467E-2
1.001000600E1,1.190087721E-1,1.539376564E-3,-2.040293068E-3,1.190362143E-1
1.001981700E1,1.355021298E-1,-1.514949836E-3,-1.429427415E-3,1.355181372E-1
1.002977300E1,1.397781819E-1,-2.778215706E-2,7.733551785E-3,1.427220943E-1
1.003978900E1,1.269500107E-1,-2.289523557E-2,6.511820480E-3,1.291623042E-1
1.004978100E1,1.067914665E-1,2.150241286E-3,5.900956690E-3,1.069759886E-1
1.005986100E1,9.396329522E-2,2.150241286E-3,4.068359733E-3,9.407590519E-2
1.006983800E1,1.000719443E-1,9.285109118E-4,-8.185617626E-4,1.000795994E-1
1.007986300E1,1.110675186E-1,-2.932194620E-4,7.122686133E-3,1.112960571E-1
1.008995400E1,1.129001155E-1,3.176461905E-4,1.445307024E-2,1.138219145E-1
1.009978100E1,8.480031788E-2,3.176461905E-4,1.567480154E-2,8.623742932E-2
1.010982000E1,4.081801325E-2,-1.678658277E-2,-3.262022510E-3,4.425539919E-2
1.011986500E1,4.387234151E-2,-8.214916289E-2,-1.059240568E-2,9.373081868E-2
1.012983800E1,2.860071138E-2,-6.565579772E-2,4.679225385E-3,7.176753873E-2
1.013987400E1,1.332907937E-2,-3.694513440E-2,1.014033332E-3,3.928912797E-2
1.014986200E1,2.004859783E-2,-6.382320076E-2,-4.483753815E-3,6.704812659E-2
1.015989500E1,2.615724877E-2,-5.588195845E-2,-3.262022510E-3,6.178701914E-2
1.016984500E1,4.631580040E-2,-1.373225544E-2,-6.927214563E-3,4.880281250E-2
1.017979800E1,7.441560924E-2,3.982837312E-3,-5.094618537E-3,7.469605766E-2
1.018983000E1,8.907637000E-2,3.371972591E-3,-2.651156858E-3,8.917958581E-2
1.019979800E1,9.640675783E-2,9.285109118E-4,-3.872888163E-3,9.648898565E-2
1.020985700E1,1.019045413E-1,2.150241286E-3,-8.185617626E-4,1.019305112E-1
1.021986400E1,1.141218469E-1,8.869759738E-3,2.846630290E-3,1.145014055E-1
1.022982400E1,1.306152046E-1,5.529551581E-2,4.679225385E-3,1.419148367E-1
1.023999000E1,1.379455924E-1,1.047756076E-1,6.511820480E-3,1.733473917E-1
1.024980900E1,1.367238611E-1,9.500176460E-2,2.235764638E-3,1.665044988E-1
1.025982900E1,1.165653095E-1,1.090516597E-1,2.235764638E-3,1.596393889E-1
1.026983800E1,9.579589218E-2,1.121059880E-1,1.014033332E-3,1.474640084E-1
1.027985800E1,7.869166136E-2,8.278445899E-2,-8.185617626E-4,1.142204634E-1
1.028986400E1,5.303531885E-2,3.941302001E-2,-2.651156858E-3,6.612987090E-2
1.029982700E1,5.242445320E-2,5.285205692E-2,-2.651156858E-3,7.448954186E-2
1.030983500E1,4.814839736E-2,3.880215809E-2,-3.262022510E-3,6.192347238E-2
1.031979900E1,4.326147586E-2,3.696956113E-2,-8.185617626E-4,5.691198281E-2
1.032980100E1,4.203974456E-2,3.819129243E-2,1.624898985E-3,5.682037695E-2
1.033979100E1,4.142887890E-2,3.513696417E-2,4.068359733E-3,5.447485484E-2
1.034985300E1,3.165503591E-2,3.208263963E-2,5.290091038E-3,4.537975460E-2
1.035980100E1,1.577254012E-2,2.475225553E-2,3.457494080E-3,2.955336598E-2
1.036982600E1,3.555234987E-3,7.648028899E-3,4.031695426E-4,8.443612233E-3
1.037980900E1,-5.607743282E-3,-2.932194620E-4,-8.185617626E-4,5.674751601E-3
1.038983700E1,-1.599245146E-2,-2.125815488E-3,4.031695426E-4,1.613815791E-2
1.039982500E1,-2.026850916E-2,3.176461905E-4,4.031695426E-4,2.027500699E-2
1.040988700E1,-1.965764351E-2,1.539376564E-3,2.846630290E-3,1.992224718E-2
1.041982700E1,-1.965764351E-2,9.285109118E-4,2.235764638E-3,1.980615370E-2
1.042982600E1,-2.087937482E-2,1.539376564E-3,1.624898985E-3,2.099900640E-2
1.043987700E1,-2.698802762E-2,9.285109118E-4,-2.076961100E-4,2.700479411E-2
1.044985100E1,-3.370754793E-2,-9.040841833E-4,-3.262022510E-3,3.387708587E-2
1.045982700E1,-3.737273812E-2,-1.514949836E-3,-5.094618537E-3,3.774879820E-2
1.046985500E1,-3.859446943E-2,-1.514949836E-3,-7.538079284E-3,3.935290056E-2
1.047981300E1,-3.859446943E-2,-2.125815488E-3,-7.538079284E-3,3.938114779E-2
1.048982300E1,-3.859446943E-2,-2.125815488E-3,-4.483753815E-3,3.891216018E-2
1.049979600E1,-3.615100682E-2,-1.434311923E-2,-2.040293068E-3,3.894590041E-2
1.050985200E1,-3.248581663E-2,-2.533869445E-2,4.031695426E-4,4.120121678E-2
1.051977900E1,-5.753128976E-2,-1.514949836E-3,-2.076961100E-4,5.755160738E-2
1.052982300E1,-6.852686405E-2,-2.125815488E-3,-2.076961100E-4,6.856014386E-2
1.053985300E1,-7.646811008E-2,-2.125815488E-3,-3.262022510E-3,7.656717144E-2
1.054986700E1,-7.830070704E-2,-2.932194620E-4,-4.483753815E-3,7.842952728E-2
1.055979800E1,-7.646811008E-2,5.204567686E-3,-5.705483258E-3,7.685708766E-2
1.056986000E1,-7.830070704E-2,1.009149011E-2,-3.262022510E-3,7.901569266E-2
1.057983700E1,-1.021244526E-1,6.445849687E-2,-1.429427415E-3,1.207739413E-1
1.058990600E1,-1.430524141E-1,1.719707698E-1,-1.429427415E-3,2.236961825E-1
1.059984500E1,-1.790934652E-1,1.872424036E-1,-1.429427415E-3,2.591066002E-1
1.060984700E1,-2.126910537E-1,1.854098141E-1,-5.094618537E-3,2.822060216E-1
1.061988100E1,-2.426234633E-1,2.391659468E-1,-8.148944937E-3,3.407827759E-1
1.062988800E1,-2.640037537E-1,2.941438258E-1,-8.148944937E-3,3.953289485E-1
1.063980300E1,-2.982122004E-1,3.668367863E-1,-4.483753815E-3,4.727788577E-1
1.064988000E1,-3.764029741E-1,4.425840676E-1,1.017701253E-2,5.810881408E-1
1.065981000E1,-4.930782318E-1,4.737381935E-1,8.955283090E-3,6.838378578E-1
1.066988600E1,-5.932601094E-1,4.169277251E-1,-1.547932811E-2,7.252764266E-1
1.067977800E1,-7.154331207E-1,2.171747983E-1,-6.316348910E-3,7.476960208E-1
1.068985700E1,-7.838500738E-1,4.979772866E-2,-2.219884470E-2,7.857439409E-1
1.069986200E1,-7.801848650E-1,-3.389080986E-2,-1.975538395E-2,7.811704588E-1
1.070982600E1,-7.502524853E-1,-8.459261805E-2,-1.975538395E-2,7.552648396E-1
1.071986300E1,-7.368134260E-1,-6.687752903E-2,-2.342057601E-2,7.402129099E-1
1.072979900E1,-7.545285225E-1,-1.128879283E-2,-2.647490241E-2,7.550772467E-1
1.073984400E1,-7.862935066E-1,-2.736680210E-3,-2.219884470E-2,7.866115666E-1
1.074976000E1,-8.687603474E-1,-2.045177296E-2,-2.342057601E-2,8.693165934E-1
1.075985500E1,-9.255707860E-1,-1.316292584E-1,-3.747047484E-2,9.356343185E-1
1.076980100E1,-9.610009789E-1,-1.291857958E-1,-4.113566875E-2,9.705173850E-1
1.077980200E1,-9.750508666E-1,-9.131214023E-2,-3.563788161E-2,9.799653861E-1
1.078979500E1,-9.970420003E-1,-5.527109280E-2,-3.014009446E-2,9.990275619E-1
1.079977900E1,-1.033693910E0,-3.389080986E-2,-2.891836315E-2,1.034653545E0
1.080986600E1,-1.056906819E0,-6.321233511E-2,-3.258355334E-2,1.059296706E0
1.081979400E1,-1.051409006E0,-1.542312652E-1,-5.029864609E-2,1.063850617E0
1.082980500E1,-1.032472253E0,-1.401813626E-1,-7.656585425E-2,1.044754563E0
1.083977400E1,-1.012313604E0,-1.218554005E-1,-3.319441900E-2,1.020161478E0
1.084978000E1,-1.000096321E0,-4.671897739E-2,-2.891836315E-2,1.001604506E0
1.085977000E1,-9.603900909E-1,-5.832542107E-2,-4.052480310E-2,9.630125862E-1
1.086977600E1,-8.834210634E-1,-9.375559539E-2,-5.762902647E-2,8.902493986E-1
1.087981100E1,-9.524488449E-1,-1.462900192E-1,-6.068335474E-2,9.655268207E-1
1.088978300E1,-1.059961081E0,-1.414030939E-1,-2.891836315E-2,1.069742305E0
1.089977000E1,-1.163808227E0,-1.798876077E-1,-5.579643697E-2,1.178949694E0
1.090982800E1,-1.280483484E0,-1.633942425E-1,-1.046656519E-1,1.295102517E0
1.091980500E1,-1.353787303E0,-1.505660713E-1,-9.550267458E-2,1.365478291E0
1.092981100E1,-1.477182150E0,1.192408521E-2,-1.028330624E-1,1.480805162E0
1.093977800E1,-1.573087931E0,1.353188604E-1,-1.266568005E-1,1.583969311E0
1.094976400E1,-1.616459370E0,1.121059880E-1,-1.596435308E-1,1.628187552E0
1.095977600E1,-1.616459370E0,-7.054272294E-2,-1.431501657E-1,1.624318054E0
1.096983000E1,-1.612794161E0,-1.676702946E-1,-8.450710028E-2,1.623687095E0
1.097975700E1,-1.603020310E0,-5.771455541E-2,-6.557027996E-2,1.605398563E0
1.098976800E1,-1.597522497E0,-1.861917600E-2,-4.113566875E-2,1.598160488E0
1.099977600E1,-1.593857408E0,4.593702964E-3,-2.403144166E-2,1.594045184E0
1.100981800E1,-1.584694386E0,-4.569276236E-3,-3.136182576E-2,1.585011274E0
1.101978800E1,-1.576753139E0,-9.456197731E-3,-4.541172460E-2,1.577435294E0
1.102983800E1,-1.576142311E0,-7.623602636E-3,-6.007248908E-2,1.577305109E0
1.103985700E1,-1.577974916E0,-5.180141889E-3,-6.984633207E-2,1.579528467E0
1.104980100E1,-1.589581251E0,-2.736680210E-3,-8.939402550E-2,1.592095266E0
1.105991100E1,-1.662274241E0,9.988868237E-2,-1.150503680E-1,1.669242340E0
1.106981500E1,-1.744741082E0,2.257269174E-1,-1.291002631E-1,1.764012745E0
1.107989600E1,-1.753904104E0,2.092335522E-1,-9.794613719E-2,1.769053909E0
1.108990900E1,-1.734356403E0,1.029430106E-1,-2.952922881E-2,1.737659740E0
1.109985500E1,-1.733134627E0,-2.411696315E-2,3.155729920E-2,1.733589665E0
1.110993000E1,-1.775895238E0,-9.375559539E-2,5.843536556E-2,1.779328160E0
1.111984400E1,-1.846755624E0,-7.848396897E-2,6.820920855E-2,1.849680665E0
1.112978700E1,-1.869968414E0,-7.359704375E-2,3.155729920E-2,1.871682200E0
1.113976200E1,-1.848588228E0,-7.848396897E-2,-3.502701595E-2,1.850585060E0
1.114977600E1,-1.839425206E0,-4.977330565E-2,-3.563788161E-2,1.840443569E0
1.115983300E1,-1.855918527E0,1.192408521E-2,1.750739478E-2,1.856039404E0
1.116976400E1,-1.888905287E0,5.407378823E-2,6.454401463E-2,1.890781079E0
1.117986200E1,-1.898679137E0,1.375668123E-2,5.721363425E-2,1.899590775E0
1.118978500E1,-1.885850906E0,-9.070127457E-2,-1.059240568E-2,1.888060529E0
1.119979300E1,-2.044676065E0,-2.350610122E-2,-1.578109264E-1,2.050891767E0
1.120980800E1,-2.069721460E0,1.864360273E-2,-1.712499708E-1,2.076877719E0
1.121979300E1,-1.979924202E0,-4.183205590E-2,-1.352089196E-1,1.984976377E0
1.122984000E1,-1.926168084E0,-2.594956011E-2,-8.939402550E-2,1.928415972E0
1.123982200E1,-1.949991822E0,3.025004268E-2,4.068359733E-3,1.950230685E0
1.124981300E1,-1.990919828E0,2.963917702E-2,1.060828567E-1,1.993964347E0
1.125980300E1,-1.957322240E0,-1.188010797E-1,1.757214963E-1,1.968781880E0
1.126983000E1,-1.946937442E0,4.002388567E-2,1.488434225E-1,1.953028847E0
1.127983600E1,-1.940828800E0,2.414138988E-2,3.457494080E-3,1.940982018E0
1.128979900E1,-1.926168084E0,-9.619905800E-2,-1.834672689E-1,1.937275919E0
1.129979700E1,-1.922502875E0,-1.133032814E-1,-1.828564107E-1,1.934500299E0
1.130987700E1,-1.926168084E0,3.176461905E-4,-1.486846246E-2,1.926225496E0
1.131982100E1,-1.938996196E0,8.706051111E-2,1.091371775E-1,1.944015613E0
1.132981100E1,-1.962209105E0,1.151603162E-1,1.720563024E-1,1.973101580E0
1.133981500E1,-1.970150352E0,1.530339569E-1,2.154277265E-1,1.987792973E0
1.134984400E1,-1.938996196E0,1.621969342E-1,2.484144568E-1,1.961561581E0
1.135989100E1,-1.887683511E0,1.591425985E-1,2.600208819E-1,1.912141800E0
1.136997200E1,-1.848588228E0,1.316536665E-1,2.441383898E-1,1.869281862E0
1.137987200E1,-1.812547088E0,9.866695106E-2,1.989343762E-1,1.826098847E0
1.138984000E1,-1.767343044E0,6.690195948E-2,1.335717887E-1,1.773645605E0
1.139981400E1,-1.721528172E0,3.574782982E-2,6.332229078E-2,1.723063222E0
1.140981600E1,-1.712365270E0,4.674340412E-2,3.461162001E-2,1.713352774E0
1.141990900E1,-1.730080366E0,5.834984407E-2,9.264381975E-2,1.733541362E0
1.142980200E1,-1.695261002E0,8.278445899E-2,2.306993604E-1,1.712888007E0
1.143978600E1,-1.655554771E0,6.506936252E-2,2.050430179E-1,1.669472450E0
1.144984600E1,-1.622568011E0,6.506936252E-2,1.512868851E-1,1.630904257E0
1.145992400E1,-1.595079064E0,3.452609852E-2,8.531343937E-2,1.597732035E0
1.146982700E1,-1.596300840E0,8.258894086E-3,1.262047328E-2,1.596372093E0
1.147987300E1,-1.614626765E0,-2.106263861E-2,-3.197269142E-2,1.615080642E0
1.148980200E1,-1.641504884E0,-7.623602636E-3,-4.480085894E-2,1.642133831E0
1.149981900E1,-1.693428397E0,1.131322049E-2,-4.541172460E-2,1.694074954E0
1.150983400E1,-1.745962858E0,3.086090833E-2,-6.251595169E-2,1.747354269E0
1.151980400E1,-1.783836484E0,-1.128879283E-2,-7.717671990E-2,1.785540894E0
1.152979900E1,-1.814379692E0,-2.167350426E-2,-6.740287691E-2,1.815760600E0
1.153977400E1,-1.832094789E0,-1.861917600E-2,-4.907691479E-2,1.832846565E0
1.154983600E1,-1.835149169E0,3.208263963E-2,-3.380528465E-2,1.835740876E0
1.155991500E1,-1.814990640E0,4.859555066E-1,-1.376523823E-1,1.883956463E0
1.156983800E1,-1.650667787E0,9.043982625E-1,-4.717956781E-1,1.940420450E0
1.157979000E1,-1.345235229E0,6.081286073E-1,-6.978158355E-1,1.632919215E0
1.158981600E1,-1.053241611E0,2.990307510E-1,-4.858455658E-1,1.197824359E0
1.159983200E1,-6.268576980E-1,6.201503426E-2,-9.916786849E-2,6.376760181E-1
1.160981800E1,-1.546588540E-1,-2.006570250E-1,4.679225385E-3,2.533860650E-1
1.161984400E1,2.554638498E-2,-2.312002927E-1,9.020035714E-2,2.494840627E-1
1.162977800E1,-7.440339308E-3,-1.835528016E-1,1.555629373E-1,2.407214512E-1
1.163986700E1,-7.830070704E-2,-1.982135624E-1,1.518977433E-1,2.617107974E-1
1.164980900E1,-2.010846138E-1,-2.434175909E-1,1.867170632E-1,3.668111328E-1
1.165979700E1,-4.381003380E-1,-4.132381380E-1,2.514687777E-1,6.526363543E-1
1.166980500E1,-5.950927138E-1,-5.348002911E-1,2.887315750E-1,8.505954454E-1
1.167984900E1,-8.113389611E-1,-5.134199858E-1,2.618534863E-1,9.952076366E-1
1.168981400E1,-9.475619197E-1,-4.346184134E-1,1.885496676E-1,1.059394985E0
1.169977800E1,-9.829921126E-1,-3.405451775E-1,1.005850658E-1,1.045161168E0
1.170979600E1,-9.842138290E-1,-2.409741282E-1,1.078787819E-2,1.013341882E0
1.171980500E1,-9.652770162E-1,-1.646159738E-1,-6.434854865E-2,9.813250595E-1
1.172987900E1,-9.206838608E-1,-1.029185802E-1,-1.101634428E-1,9.329453305E-1
1.173980400E1,-8.217236996E-1,-7.542964071E-2,-1.028330624E-1,8.315612472E-1
1.174978700E1,-7.013832331E-1,-5.893628672E-2,-6.679201126E-2,7.070170424E-1
1.175985000E1,-6.128077507E-1,-1.312138978E-2,-6.251595169E-2,6.161280341E-1
1.176982600E1,-5.498886704E-1,3.819129243E-2,-9.672440588E-2,5.596353593E-1
1.177978200E1,-5.101824403E-1,6.445849687E-2,-1.480370909E-1,5.351224163E-1
1.178985500E1,-5.248431563E-1,7.545407116E-2,-1.907976568E-1,5.635223167E-1
1.179978500E1,-5.944818258E-1,8.034099638E-2,-1.889650524E-1,6.289444395E-1
1.180978900E1,-6.665639281E-1,6.934542209E-2,-1.535348743E-1,6.875239745E-1
1.182004000E1,-7.056592703E-1,3.086090833E-2,-1.138286367E-1,7.154469651E-1
1.182979700E1,-7.154331207E-1,-1.984090731E-2,-9.122662246E-2,7.214987931E-1
1.183981300E1,-1.485502124E-1,-8.234468289E-3,-7.228979468E-2,1.654109624E-1
1.184988100E1,2.277427763E-1,-2.238699049E-1,1.014033332E-3,3.193517414E-1
1.185982600E1,1.807061583E-1,-2.098200023E-1,-2.651156858E-3,2.769226925E-1
1.186988300E1,2.112494260E-1,-2.183721215E-1,-2.280971035E-2,3.046850608E-1
1.187980400E1,2.753902674E-1,-2.855672836E-1,-1.059240568E-2,3.968635432E-1
1.188982400E1,2.894401550E-1,-3.020606637E-1,-7.538079284E-3,4.184173401E-1
1.189979300E1,2.986031473E-1,-3.130562305E-1,-5.094618537E-3,4.326592171E-1
1.190979600E1,3.028791845E-1,-3.252735436E-1,-1.731192321E-2,4.447902666E-1
1.191992200E1,3.059335053E-1,-3.326039314E-1,-5.029864609E-2,4.546984041E-1
1.192982600E1,1.165653095E-1,-9.864252061E-2,-6.251595169E-2,1.650032195E-1
1.193978900E1,9.053021669E-3,6.426298525E-3,-3.197269142E-2,3.384534696E-2
1.194979600E1,2.944369800E-3,1.803273708E-2,-1.975538395E-2,2.690955435E-2
1.195986500E1,5.009088200E-4,3.696956113E-2,-2.280971035E-2,4.344286186E-2
1.196978800E1,-1.099563669E-4,4.552167282E-2,-1.059240568E-2,4.673792726E-2
1.197977700E1,5.009088200E-4,7.178887725E-2,5.290091038E-3,7.198526842E-2
1.198978000E1,1.722639427E-3,9.133657068E-2,2.728123777E-2,9.533940719E-2
1.199982100E1,1.722639427E-3,9.561263025E-2,3.644421697E-2,1.023373026E-1
1.200989500E1,1.111774123E-3,7.178887725E-2,1.567480154E-2,7.348862730E-2
1.201979600E1,-1.099563669E-4,5.529551581E-2,-1.120327134E-2,5.641914079E-2
1.202981100E1,-7.208215538E-4,4.002388567E-2,-2.342057601E-2,4.637838277E-2
1.203979300E1,-7.208215538E-4,3.208263963E-2,-1.975538395E-2,3.768408875E-2
1.204986100E1,-1.331686974E-3,3.635869548E-2,-1.975538395E-2,4.140052321E-2
1.205993300E1,-1.331686974E-3,4.796513543E-2,-3.441615030E-2,5.904997043E-2
1.206981100E1,-1.942552160E-3,6.751282513E-2,-3.563788161E-2,7.636631241E-2
1.207988300E1,-3.164282534E-3,7.239974290E-2,-2.280971035E-2,7.597380037E-2
1.208982900E1,-2.553417347E-3,7.423233986E-2,-8.148944937E-3,7.472192131E-2
1.209982200E1,-7.208215538E-4,6.568022817E-2,-4.483753815E-3,6.583704128E-2
1.210984700E1,5.009088200E-4,7.973013073E-2,-1.429427415E-3,7.974451654E-2
1.211980400E1,5.009088200E-4,9.988868237E-2,-2.076961100E-4,9.989015423E-2
1.212983900E1,-1.099563669E-4,1.285993457E-1,-8.185617626E-4,1.286019978E-1
1.213985000E1,-1.331686974E-3,2.183965296E-1,1.017701253E-2,2.186375748E-1
1.214981600E1,-1.331686974E-3,3.240762353E-1,3.277902305E-2,3.257324731E-1
1.216019100E1,5.387830548E-3,3.613390028E-1,4.805065691E-2,3.645596924E-1
1.216983400E1,1.111774123E-3,2.568810582E-1,3.522248566E-2,2.592869792E-1
1.217995000E1,4.776965827E-3,1.658621281E-1,1.139874198E-2,1.663219657E-1
1.218986900E1,1.149648242E-2,6.384763122E-2,4.031695426E-4,6.487566312E-2
1.219979300E1,1.455080882E-2,5.285205692E-2,-2.076961100E-4,5.481887536E-2
1.220981400E1,1.577254012E-2,5.468465015E-2,-8.185617626E-4,5.691971563E-2
1.221991200E1,1.760513522E-2,5.407378823E-2,-1.429427415E-3,5.688548692E-2
1.222981200E1,1.393994503E-2,4.429994151E-2,-8.185617626E-4,4.644864830E-2
1.223979400E1,7.220426574E-3,2.169792913E-2,-8.185617626E-4,2.288241097E-2
1.224985400E1,9.663887322E-3,2.780658193E-2,-8.185617626E-4,2.944939320E-2
1.225980100E1,8.442156948E-3,2.536312118E-2,-8.185617626E-4,2.674374643E-2
1.226978700E1,7.220426574E-3,2.414138988E-2,4.031695426E-4,2.520126605E-2
1.227993700E1,9.053021669E-3,2.841744572E-2,-2.076961100E-4,2.982535097E-2
1.228999300E1,7.220426574E-3,1.864360273E-2,-2.076961100E-4,1.999403962E-2
1.229983000E1,1.111774123E-3,-2.125815488E-3,-8.185617626E-4,2.534793197E-3
1.230980900E1,-4.996878561E-3,-2.167350426E-2,4.031695426E-4,2.224572157E-2
1.231982000E1,-4.996878561E-3,-2.656042576E-2,4.031695426E-4,2.702938322E-2
1.232983100E1,-8.051205426E-3,-3.389080986E-2,4.031695426E-4,3.483635239E-2
1.233995000E1,1.027475297E-2,2.902831137E-2,-2.076961100E-4,3.079377449E-2
1.234983900E1,-3.164282534E-3,-4.569276236E-3,-8.185617626E-4,5.617918888E-3
1.235989000E1,-1.331686974E-3,-3.958410583E-3,-8.185617626E-4,4.255872167E-3
1.236986200E1,1.722639427E-3,3.982837312E-3,-8.185617626E-4,4.415939652E-3
1.237977900E1,-1.099563669E-4,-1.514949836E-3,-2.076961100E-4,1.533069171E-3
1.238979600E1,-7.208215538E-4,-2.932194620E-4,-2.076961100E-4,8.054185493E-4
1.239987300E1,-1.099563669E-4,3.176461905E-4,-2.076961100E-4,3.951293195E-4
1.240980800E1,5.009088200E-4,9.285109118E-4,-8.185617626E-4,1.335322253E-3
1.241980000E1,5.009088200E-4,9.285109118E-4,-2.076961100E-4,1.075258031E-3
1.242980500E1,-1.099563669E-4,-2.932194620E-4,4.031695426E-4,5.105034139E-4
1.243979200E1,-1.099563669E-4,-9.040841833E-4,4.031695426E-4,9.959941230E-4
1.244978200E1,-1.099563669E-4,3.176461905E-4,4.031695426E-4,5.249144550E-4
1.245992800E1,-7.208215538E-4,9.285109118E-4,4.031695426E-4,1.242683349E-3
1.246978900E1,-1.099563669E-4,-2.932194620E-4,-2.076961100E-4,3.757735085E-4
1.247985000E1,5.009088200E-4,-2.932194620E-4,-2.076961100E-4,6.164616557E-4
1.248989800E1,5.009088200E-4,-2.932194620E-4,-8.185617626E-4,1.003459345E-3
1.249981600E1,-1.099563669E-4,3.176461905E-4,-2.076961100E-4,3.951293195E-4
1.251017400E1,-7.208215538E-4,3.176461905E-4,-2.076961100E-4,8.146290499E-4
1.251980300E1,5.009088200E-4,3.176461905E-4,-8.185617626E-4,1.010867008E-3
1.252978900E1,5.009088200E-4,3.176461905E-4,4.031695426E-4,7.171850726E-4
1.253979100E1,-7.208215538E-4,-2.932194620E-4,-8.185617626E-4,1.129426724E-3
1.254983200E1,-7.208215538E-4,3.176461905E-4,-2.076961100E-4,8.146290499E-4
1.255979900E1,5.009088200E-4,9.285109118E-4,-2.076961100E-4,1.075258031E-3
1.256982800E1,-7.208215538E-4,9.285109118E-4,-2.076961100E-4,1.193672442E-3
1.257977000E1,-1.099563669E-4,-2.932194620E-4,-2.076961100E-4,3.757735085E-4
1.258986000E1,-7.208215538E-4,3.176461905E-4,-2.076961100E-4,8.146290499E-4
1.259976600E1,-1.099563669E-4,9.285109118E-4,-2.076961100E-4,9.577894288E-4
1.260998300E1,-1.099563669E-4,9.285109118E-4,-8.185617626E-4,1.242685107E-3
1.261979200E1,-1.099563669E-4,3.176461905E-4,-2.076961100E-4,3.951293195E-4
1.262982400E1,-1.099563669E-4,3.176461905E-4,-8.185617626E-4,8.848914420E-4
1.263981300E1,-1.099563669E-4,3.176461905E-4,4.031695426E-4,5.249144550E-4
1.264984800E1,-7.208215538E-4,-2.932194620E-4,4.031695426E-4,8.764171640E-4
1.265981900E1,5.009088200E-4,1.539376564E-3,1.014033332E-3,1.910197229E-3
1.266978000E1,4.570493475E-2,1.481470317E-1,-2.076961100E-4,1.550371800E-1
1.267982300E1,1.324478090E-1,4.529687762E-1,-1.429427415E-3,4.719376840E-1
1.268985500E1,2.737898007E-2,8.889310807E-2,-2.076961100E-4,9.301417284E-2
1.269978600E1,5.998696201E-3,2.475225553E-2,-2.076961100E-4,2.546962205E-2
1.270987000E1,5.998696201E-3,1.314581651E-2,-8.185617626E-4,1.447297106E-2
1.271985300E1,5.998696201E-3,8.869759738E-3,-2.076961100E-4,1.070981473E-2
1.272980400E1,5.009088200E-4,-5.180141889E-3,-2.076961100E-4,5.208446727E-3
1.273983400E1,-2.553417347E-3,-1.434311923E-2,4.031695426E-4,1.457420855E-2
1.274986000E1,-4.996878561E-3,-2.228436992E-2,-2.076961100E-4,2.283867500E-2
1.275983100E1,-6.218608934E-3,-2.778215706E-2,-8.185617626E-4,2.848138676E-2
1.276983300E1,-8.662069216E-3,-3.205821291E-2,-2.076961100E-4,3.320848680E-2
1.277988400E1,-1.110552996E-2,-3.877773136E-2,-2.076961100E-4,4.033718363E-2
1.278987500E1,-7.440339308E-3,-2.411696315E-2,-2.076961100E-4,2.523944726E-2
1.279983600E1,-3.775147721E-3,-1.678658277E-2,4.031695426E-4,1.721056789E-2
1.280983800E1,-6.218608934E-3,-2.106263861E-2,-2.076961100E-4,2.196244476E-2
1.281982500E1,-1.293812692E-2,-4.366465285E-2,-2.076961100E-4,4.554163123E-2
1.282999500E1,-2.271196991E-2,-7.726223767E-2,-2.076961100E-4,8.053154714E-2
1.283986400E1,-3.309668228E-2,-1.126924232E-1,4.031695426E-4,1.174526933E-1
1.284977900E1,-4.164879397E-2,-1.377379000E-1,4.031695426E-4,1.438975805E-1
1.285974500E1,-1.660331711E-2,-5.588195845E-2,4.031695426E-4,5.829773551E-2
1.286977800E1,-1.942552160E-3,-3.347544931E-3,-8.185617626E-4,3.955958711E-3
1.287978100E1,-3.164282534E-3,-1.251052413E-2,-2.076961100E-4,1.290616270E-2
1.288974500E1,4.776965827E-3,1.436754689E-2,-8.185617626E-4,1.516297627E-2
1.289978000E1,9.053021669E-3,2.841744572E-2,-2.076961100E-4,2.982535097E-2
1.290995700E1,3.555234987E-3,1.192408521E-2,-2.076961100E-4,1.244454264E-2
1.291984200E1,-1.942552160E-3,-7.623602636E-3,4.031695426E-4,7.877523198E-3
1.292977700E1,-3.775147721E-3,-1.189965848E-2,-8.185617626E-4,1.251094143E-2
1.293985700E1,-2.553417347E-3,-8.845332079E-3,-8.185617626E-4,9.242828739E-3
1.294978600E1,-7.208215538E-4,-3.347544931E-3,-8.185617626E-4,3.520750507E-3
1.295983700E1,4.776965827E-3,1.558927726E-2,-8.185617626E-4,1.632528748E-2
1.296978000E1,6.609561387E-3,2.414138988E-2,-2.076961100E-4,2.503070404E-2
1.298010600E1,4.776965827E-3,2.230879478E-2,4.031695426E-4,2.281806900E-2
1.298998900E1,4.776965827E-3,1.620014198E-2,4.031695426E-4,1.689457157E-2
1.299989300E1,1.111774123E-3,1.620014198E-2,-2.076961100E-4,1.623957449E-2
1.300979200E1,2.944369800E-3,1.925446838E-2,-2.076961100E-4,1.947939947E-2
1.301984300E1,2.944369800E-3,1.192408521E-2,2.846630290E-3,1.260779226E-2
1.302986000E1,3.555234987E-3,1.375668123E-2,2.972470038E-2,3.294607392E-2
1.303978700E1,1.271821372E-2,3.941302001E-2,1.091371775E-1,1.167307269E-1
1.304989300E1,2.371378802E-2,7.667580247E-2,2.227581143E-1,2.367756320E-1
1.305983400E1,2.432465367E-2,6.873455644E-2,3.510398269E-1,3.585318508E-1
1.306986500E1,2.065946162E-2,5.712811276E-2,4.451130629E-1,4.492394388E-1
1.307978500E1,1.882686652E-2,3.330437094E-2,4.634390175E-1,4.650154352E-1
1.308978600E1,1.149648242E-2,2.047619969E-2,4.658824801E-1,4.664739319E-1
1.309977200E1,3.555234987E-3,-3.347544931E-3,5.434623957E-1,5.434843340E-1
1.310974200E1,7.220426574E-3,-1.067792904E-2,6.167662144E-1,6.169008964E-1
1.311990600E1,7.220426574E-3,-8.845332079E-3,6.980112791E-1,6.981046628E-1
1.313005700E1,1.149648242E-2,-4.569276236E-3,8.122431040E-1,8.123373113E-1
1.313974900E1,1.455080882E-2,-2.125815488E-3,9.961134791E-1,9.962220176E-1
1.314977700E1,1.760513522E-2,-3.958410583E-3,1.200753450E0,1.200889028E0
1.315988200E1,1.271821372E-2,-2.778215706E-2,1.412112832E0,1.412443362E0
1.317000700E1,1.149648242E-2,-3.938859701E-2,1.609422326E0,1.609945295E0
1.317993300E1,2.944369800E-3,-7.787310332E-2,1.766414642E0,1.768132794E0
1.318986300E1,6.609561387E-3,-6.993185729E-2,1.845827103E0,1.847163188E0
1.319983500E1,2.188119292E-2,-2.411696315E-2,1.859876990E0,1.860162045E0
1.320979800E1,2.921157517E-2,-8.845332079E-3,1.845827103E0,1.846079426E0
1.321989300E1,2.554638498E-2,2.150241286E-3,1.876370430E0,1.876545558E0
1.322981300E1,3.532022610E-2,2.353052422E-2,1.956393719E0,1.956854002E0
1.323982100E1,3.287676722E-2,3.982837312E-3,2.174472570E0,2.174724742E0
1.324981700E1,2.982244082E-2,-2.594956011E-2,2.347958326E0,2.348291094E0
1.325995300E1,3.287676722E-2,-3.144734725E-2,2.497620344E0,2.498034668E0
1.326987200E1,2.860071138E-2,-4.183205590E-2,2.599024057E0,2.599518027E0
1.327991400E1,3.165503591E-2,-4.183205590E-2,2.621015072E0,2.621540000E0
1.328975500E1,2.737898007E-2,-3.633426875E-2,2.587417603E0,2.587817543E0
1.330008200E1,2.615724877E-2,-5.038416758E-2,2.525720119E0,2.526358028E0
1.331003200E1,1.943773217E-2,-5.466022715E-2,2.459746599E0,2.460430633E0
1.331990000E1,1.577254012E-2,-8.092743158E-2,2.428592682E0,2.429991859E0
1.332983500E1,1.455080882E-2,-8.031656593E-2,2.399271011E0,2.400659048E0
1.333991300E1,1.821600087E-2,-6.687752903E-2,2.357121229E0,2.358140139E0
1.334992600E1,3.715282306E-2,-9.456197731E-3,2.277097940E0,2.277420642E0
1.335982900E1,5.670050904E-2,5.529551581E-2,2.192798615E0,2.194228408E0
1.336987200E1,6.036570296E-2,8.583877981E-2,2.170807362E0,2.173342337E0
1.337990100E1,2.860071138E-2,-1.006706338E-2,2.238002539E0,2.238207924E0
1.339032300E1,2.432465367E-2,-4.488638416E-2,2.366895199E0,2.367445746E0
1.339979500E1,2.737898007E-2,-3.205821291E-2,2.447529316E0,2.447892377E0
1.340985300E1,2.921157517E-2,-3.450167552E-2,2.469520569E0,2.469934315E0
1.341978500E1,2.065946162E-2,-4.610811546E-2,2.459135771E0,2.459654754E0
1.342980600E1,2.065946162E-2,-4.671897739E-2,2.421873093E0,2.422411764E0
1.344005900E1,2.371378802E-2,-5.527109280E-2,2.385832071E0,2.386590017E0
1.344991300E1,1.699427143E-2,-7.665137202E-2,2.382166862E0,2.383460341E0
1.345984900E1,9.053021669E-3,-1.065837666E-1,2.388886452E0,2.391280104E0
1.347008500E1,2.982244082E-2,-4.794070870E-2,2.528163671E0,2.528794029E0
1.347981100E1,2.982244082E-2,-5.771455541E-2,2.578865528E0,2.579683655E0
1.348981200E1,2.249205858E-2,-7.665137202E-2,2.569091558E0,2.570333200E0
1.349983100E1,9.663887322E-3,-1.114706919E-1,2.482348680E0,2.484869026E0
1.350992000E1,1.882686652E-2,-7.909483463E-2,2.340017080E0,2.341429132E0
1.351987800E1,4.509406909E-2,3.982837312E-3,2.178748608E0,2.179218859E0
1.352977400E1,7.746993005E-2,9.439089894E-2,2.074901581E0,2.078491713E0
1.353991800E1,7.441560924E-2,1.011104137E-1,2.154314041E0,2.157968949E0
1.354982500E1,6.219829619E-2,6.873455644E-2,2.471353054E0,2.473090978E0
1.355981200E1,4.020714760E-2,-7.623602636E-3,2.959434509E0,2.959717444E0
1.356978300E1,-8.051205426E-3,-1.927157789E-1,3.306406021E0,3.312027320E0
1.357995100E1,-4.714658111E-2,-3.643689156E-1,3.350999117E0,3.371080330E0
1.358987200E1,3.532022610E-2,-1.279640645E-1,3.172015667E0,3.174792231E0
1.359977600E1,7.136128098E-2,1.681100763E-2,2.736468554E0,2.737450490E0
1.360978600E1,7.319387794E-2,8.156272769E-2,2.261826277E0,2.264479615E0
1.361984000E1,5.853310600E-2,3.758042678E-2,1.969221950E0,1.970450075E0
1.362982800E1,4.265061021E-2,1.192408521E-2,1.841551065E0,1.842083490E0
1.363986900E1,2.615724877E-2,-1.923004165E-2,1.820170760E0,1.820460269E0
1.364977400E1,3.470936045E-2,-3.389080986E-2,1.810396910E0,1.811046741E0
1.365978600E1,3.898541629E-2,4.593702964E-3,1.820781708E0,1.821204819E0
1.366975200E1,4.570493475E-2,1.864360273E-2,1.947841644E0,1.948466986E0
1.367976800E1,3.287676722E-2,-2.472782880E-2,2.175083399E0,2.175472394E0
1.368988400E1,1.882686652E-2,-1.071946323E-1,2.358953953E0,2.361463295E0
1.370007400E1,1.699427143E-2,-1.206336692E-1,2.223952770E0,2.227286962E0
1.370988700E1,3.593109176E-2,-2.411696315E-2,2.004041195E0,2.004508364E0
1.371980900E1,3.593109176E-2,-1.434311923E-2,1.715101957E0,1.715538252E0
1.372980900E1,2.127032727E-2,-3.389080986E-2,1.509851217E0,1.510381313E0
1.373992000E1,2.065946162E-2,-3.572340310E-2,1.379736900E0,1.380353900E0
1.374978400E1,1.393994503E-2,-6.076887622E-2,1.267948627E0,1.269480563E0
1.375981800E1,1.882686652E-2,-2.228436992E-2,1.157992840E0,1.158360247E0
1.376979700E1,1.821600087E-2,-3.022561595E-2,1.068806529E0,1.069388988E0
1.377978300E1,1.393994503E-2,-3.389080986E-2,1.074915171E0,1.075539647E0
1.378984500E1,1.943773217E-2,-1.495398488E-2,1.181205750E0,1.181460312E0
1.380002400E1,6.609561387E-3,-6.809926033E-2,1.274668097E0,1.276503018E0
1.380989900E1,2.004859783E-2,-3.633426875E-2,1.280165911E0,1.280838352E0
1.381994800E1,3.165503591E-2,-2.932194620E-4,1.233129263E0,1.233535531E0
1.382988800E1,3.287676722E-2,9.285109118E-4,1.178151369E0,1.178610365E0
1.384004300E1,3.470936045E-2,2.780658193E-2,1.190979600E0,1.191809697E0
1.384988700E1,2.860071138E-2,2.761106938E-3,1.252066135E0,1.252395797E0
1.385990800E1,2.737898007E-2,-1.006706338E-2,1.384013057E0,1.384320445E0
1.386994000E1,2.371378802E-2,-2.717129141E-2,1.511072993E0,1.511503296E0
1.387985800E1,2.432465367E-2,-3.022561595E-2,1.541005373E0,1.541493703E0
1.388992400E1,2.615724877E-2,-2.411696315E-2,1.467701554E0,1.468132719E0
1.389991000E1,2.554638498E-2,-1.556485053E-2,1.292994142E0,1.293340146E0
1.391000000E1,2.432465367E-2,-2.125815488E-3,9.918374419E-1,9.921379536E-1
1.391995300E1,1.149648242E-2,3.982837312E-3,5.306342244E-1,5.307736921E-1
1.392993100E1,-1.331686974E-3,-3.389080986E-2,3.162204921E-1,3.180342120E-1
1.394008700E1,-3.164282534E-3,-1.678658277E-2,6.820920855E-2,7.031570362E-2
1.394978000E1,-1.099563669E-4,1.009149011E-2,-7.778758556E-2,7.843952275E-2
1.395989200E1,-2.553417347E-3,-3.347544931E-3,-8.450710028E-2,8.461191403E-2
1.396981300E1,-1.331686974E-3,-3.958410583E-3,3.457494080E-3,5.421869590E-3
1.398010800E1,1.722639427E-3,-2.932194620E-4,8.958949149E-2,8.960653129E-2
1.398979500E1,5.387830548E-3,6.426298525E-3,1.897713989E-1,1.899566000E-1
1.399984800E1,2.944369800E-3,-7.012736984E-3,2.655186951E-1,2.656276063E-1
1.400980000E1,7.831292227E-3,8.869759738E-3,3.223291636E-1,3.225462625E-1
1.401994700E1,7.220426574E-3,-1.495398488E-2,2.814011872E-1,2.818907313E-1
1.402999900E1,1.722639427E-3,-9.456197731E-3,1.653367877E-1,1.656159429E-1
1.403989100E1,4.776965827E-3,1.558927726E-2,2.300518192E-2,2.819722262E-2
1.404982600E1,4.776965827E-3,1.131322049E-2,-5.885075778E-2,6.011838364E-2
1.405984200E1,-1.942552160E-3,3.982837312E-3,-1.211590171E-1,1.212400261E-1
1.406980500E1,-1.331686974E-3,1.070235483E-2,-2.158431262E-1,2.161123988E-1
1.407980200E1,-3.775147721E-3,1.131322049E-2,-2.946447432E-1,2.948860210E-1
1.408987000E1,-3.775147721E-3,1.070235483E-2,-2.805948555E-1,2.808242602E-1
1.410021200E1,-4.996878561E-3,-2.932194620E-4,-2.085127532E-1,2.085728243E-1
1.410980100E1,-3.775147721E-3,-3.347544931E-3,-1.278785318E-1,1.279780321E-1
1.411985800E1,-1.331686974E-3,-2.932194620E-4,-9.977873415E-2,9.978805117E-2
1.412985600E1,-1.942552160E-3,-9.040841833E-4,-7.717671990E-2,7.720645680E-2
1.413984100E1,-6.829473656E-3,-1.251052413E-2,-7.900931686E-2,8.028466277E-2
1.414980500E1,4.776965827E-3,4.674340412E-2,-4.168177843E-1,4.194577816E-1
1.415997500E1,5.387830548E-3,5.834984407E-2,-5.347147584E-1,5.379159840E-1
1.416981700E1,-3.164282534E-3,3.086090833E-2,-5.365473628E-1,5.374434676E-1
1.417989000E1,-1.110552996E-2,3.176461905E-4,-4.772934616E-1,4.774227499E-1
1.418987700E1,-1.171639562E-2,-6.401871331E-3,-4.223155975E-1,4.225265930E-1
1.419998100E1,-8.051205426E-3,3.176461905E-4,-3.618399203E-1,3.619296212E-1
1.420984800E1,-3.775147721E-3,7.648028899E-3,-3.154141605E-1,3.155294546E-1
1.421996200E1,-4.996878561E-3,-2.125815488E-3,-2.531059086E-1,2.531641540E-1
1.422993900E1,-4.386012908E-3,-3.958410583E-3,-1.785803437E-1,1.786780493E-1
1.424015700E1,-1.942552160E-3,-2.736680210E-3,-8.817229420E-2,8.823613994E-2
1.424988100E1,-3.164282534E-3,-1.006706338E-2,-3.136182576E-2,3.308961415E-2
1.425995300E1,-4.386012908E-3,-1.067792904E-2,-3.258355334E-2,3.456795085E-2
1.426985400E1,-5.607743282E-3,-1.373225544E-2,-4.418999329E-2,4.661305752E-2
1.427982200E1,-5.607743282E-3,-1.495398488E-2,-3.014009446E-2,3.411002408E-2
1.428988900E1,-4.386012908E-3,-1.495398488E-2,-1.609019190E-2,2.239984483E-2
1.429990700E1,-4.386012908E-3,-1.251052413E-2,-1.670105755E-2,2.132312469E-2
1.430981600E1,-1.331686974E-3,-2.736680210E-3,-2.769663185E-2,2.786334913E-2
1.431990800E1,-7.208215538E-4,-9.040841833E-4,-3.624874353E-2,3.626718020E-2
1.432981300E1,-1.099563669E-4,-9.040841833E-4,-2.952922881E-2,2.954327017E-2
1.433990600E1,-7.208215538E-4,-3.958410583E-3,-4.483753815E-3,6.024337834E-3
1.434978500E1,-1.099563669E-4,-2.932194620E-4,4.031695426E-4,5.105034139E-4
1.436008800E1,3.555234987E-3,7.037163712E-3,-8.185617626E-4,7.926626791E-3
1.436988400E1,3.555234987E-3,3.982837312E-3,-2.076961100E-4,5.342829451E-3
1.437980900E1,-7.208215538E-4,-1.514949836E-3,-1.429427415E-3,2.204068840E-3
1.438987300E1,-1.099563669E-4,-1.514949836E-3,-8.759809658E-3,8.890524656E-3
1.439986100E1,-7.208215538E-4,-1.514949836E-3,-5.823989213E-2,5.826405145E-2
1.440980400E1,-1.099563669E-4,6.426298525E-3,-1.492588222E-1,1.493971399E-1
1.441989800E1,-1.942552160E-3,1.192408521E-2,-1.859107316E-1,1.863028648E-1
1.442981300E1,-1.099563669E-4,1.131322049E-2,-1.535348743E-1,1.539511568E-1
1.444011400E1,-1.942552160E-3,-7.623602636E-3,-7.351152599E-2,7.393130108E-2
1.444983200E1,-1.331686974E-3,-5.791005678E-3,-1.731192321E-2,1.830332817E-2
1.445998100E1,-1.331686974E-3,7.648028899E-3,-1.609019190E-2,1.786505000E-2
1.446990600E1,3.555234987E-3,1.314581651E-2,-2.464230731E-2,2.815484856E-2
1.447989900E1,4.776965827E-3,1.620014198E-2,-4.724431783E-2,5.017259780E-2
1.448977600E1,6.609561387E-3,2.536312118E-2,-8.511796594E-2,8.906201403E-2
1.449982300E1,4.166100174E-3,1.864360273E-2,-1.156612262E-1,1.172282371E-1
1.450981300E1,-1.331686974E-3,2.150241286E-3,-1.132177711E-1,1.132460181E-1
1.452019800E1,-1.942552160E-3,-2.932194620E-4,-7.045719773E-2,7.048458128E-2
1.452979900E1,3.555234987E-3,1.131322049E-2,-7.045719773E-2,7.144820057E-2
1.454006700E1,4.166100174E-3,1.070235483E-2,-2.076961100E-4,1.148651067E-2
1.454982000E1,3.555234987E-3,9.480624460E-3,-8.185617626E-4,1.015834530E-2
1.456031000E1,3.555234987E-3,8.258894086E-3,-8.185617626E-4,9.028791209E-3
1.456999400E1,3.555234987E-3,6.426298525E-3,-8.185617626E-4,7.389658443E-3
1.458005800E1,2.944369800E-3,7.648028899E-3,-2.076961100E-4,8.197853209E-3
1.458987000E1,1.722639427E-3,3.982837312E-3,-8.185617626E-4,4.415939652E-3
1.459980000E1,1.111774123E-3,3.371972591E-3,4.031695426E-4,3.573343887E-3
1.460994300E1,1.722639427E-3,5.815433338E-3,4.031695426E-4,6.078593356E-3
1.462006200E1,8.442156948E-3,2.108706534E-2,-2.076961100E-4,2.271513760E-2
1.462983800E1,1.149648242E-2,3.391523287E-2,-8.185617626E-4,3.582013640E-2
1.463980100E1,1.149648242E-2,3.513696417E-2,1.014033332E-3,3.698382921E-2
1.464978500E1,9.663887322E-3,2.719571814E-2,8.344417438E-3,3.004375319E-2
1.465997400E1,3.555234987E-3,7.037163712E-3,2.911383472E-2,3.016250555E-2
1.466986100E1,-6.218608934E-3,-2.167350426E-2,1.811826043E-2,2.892547744E-2
1.467979100E1,-2.759889141E-2,-8.642521501E-2,-2.076961100E-4,9.072518798E-2
1.468978900E1,-3.164282534E-3,-8.234468289E-3,-2.076961100E-4,8.823961108E-3
1.469975400E1,5.387830548E-3,1.864360273E-2,4.031695426E-4,1.941069773E-2
1.470980800E1,-1.942552160E-3,-5.791005678E-3,-2.076961100E-4,6.111660440E-3
1.471979500E1,-7.208215538E-4,-2.736680210E-3,-2.076961100E-4,2.837629285E-3
1.472981500E1,1.111774123E-3,2.761106938E-3,-8.185617626E-4,3.087036861E-3
1.473985200E1,5.009088200E-4,-2.932194620E-4,-2.076961100E-4,6.164616557E-4
1.474979700E1,-7.208215538E-4,-2.932194620E-4,-1.429427415E-3,1.627520845E-3
1.475985700E1,-1.099563669E-4,3.176461905E-4,-2.076961100E-4,3.951293195E-4
1.476976400E1,1.111774123E-3,3.176461905E-4,-8.185617626E-4,1.416680685E-3
1.477991700E1,5.009088200E-4,-9.040841833E-4,-8.185617626E-4,1.318454101E-3
1.478990300E1,5.009088200E-4,-2.932194620E-4,-2.076961100E-4,6.164616557E-4
1.479990700E1,-1.099563669E-4,3.176461905E-4,-2.076961100E-4,3.951293195E-4
1.480986100E1,-7.208215538E-4,3.176461905E-4,-8.185617626E-4,1.136013281E-3
1.482007300E1,-1.099563669E-4,9.285109118E-4,-1.429427415E-3,1.708064885E-3
1.482985500E1,-1.099563669E-4,3.176461905E-4,-8.185617626E-4,8.848914420E-4
1.483983200E1,-1.099563669E-4,3.176461905E-4,-2.076961100E-4,3.951293195E-4
1.484983100E1,-7.208215538E-4,9.285109118E-4,-2.076961100E-4,1.193672442E-3
1.485979300E1,5.009088200E-4,3.176461905E-4,-2.076961100E-4,6.284476290E-4
1.486994900E1,5.009088200E-4,3.176461905E-4,-2.076961100E-4,6.284476290E-4
1.487981100E1,5.009088200E-4,-2.932194620E-4,4.031695426E-4,7.067057230E-4
1.488981200E1,5.009088200E-4,3.176461905E-4,-8.185617626E-4,1.010867008E-3
1.489989700E1,-1.099563669E-4,3.176461905E-4,-8.185617626E-4,8.848914420E-4
1.490981700E1,-1.099563669E-4,3.176461905E-4,-8.185617626E-4,8.848914420E-4
1.492000300E1,5.009088200E-4,3.176461905E-4,-2.076961100E-4,6.284476290E-4
1.492983200E1,-1.099563669E-4,9.285109118E-4,-8.185617626E-4,1.242685107E-3
1.494006800E1,5.009088200E-4,3.176461905E-4,-2.076961100E-4,6.284476290E-4
1.494976500E1,5.009088200E-4,3.176461905E-4,-2.076961100E-4,6.284476290E-4
1.495992000E1,5.009088200E-4,3.176461905E-4,-8.185617626E-4,1.010867008E-3
1.496991500E1,5.009088200E-4,9.285109118E-4,-2.076961100E-4,1.075258031E-3
1.497987800E1,5.009088200E-4,3.176461905E-4,-2.076961100E-4,6.284476290E-4
1.498991600E1,-1.099563669E-4,9.285109118E-4,-2.076961100E-4,9.577894288E-4
1.499995500E1,-1.099563669E-4,1.539376564E-3,-2.076961100E-4,1.557211702E-3
1.500981700E1,5.009088200E-4,9.285109118E-4,4.031695426E-4,1.129419249E-3
1.501988700E1,-1.099563669E-4,3.176461905E-4,-2.076961100E-4,3.951293195E-4
1.502993600E1,5.009088200E-4,-2.932194620E-4,4.031695426E-4,7.067057230E-4
1.503989300E1,-7.208215538E-4,3.176461905E-4,4.031695426E-4,8.848889732E-4
1.504997000E1,-1.099563669E-4,3.176461905E-4,-2.076961100E-4,3.951293195E-4
1.505997800E1,5.009088200E-4,3.176461905E-4,-2.076961100E-4,6.284476290E-4
1.506994100E1,-7.208215538E-4,9.285109118E-4,-8.185617626E-4,1.432396448E-3
1.508002600E1,-1.099563669E-4,3.176461905E-4,-2.076961100E-4,3.951293195E-4
1.509007000E1,5.009088200E-4,9.285109118E-4,-2.076961100E-4,1.075258031E-3
1.509996300E1,5.009088200E-4,3.176461905E-4,-8.185617626E-4,1.010867008E-3
1.510991400E1,5.009088200E-4,3.176461905E-4,-8.185617626E-4,1.010867008E-3
1.511984500E1,5.009088200E-4,-2.932194620E-4,4.031695426E-4,7.067057230E-4
1.512992400E1,-1.099563669E-4,-2.932194620E-4,-2.076961100E-4,3.757735085E-4
1.513989900E1,-1.099563669E-4,3.176461905E-4,-2.076961100E-4,3.951293195E-4
1.514996500E1,7.831292227E-3,9.480624460E-3,-8.185617626E-4,1.232401807E-2
1.515990100E1,8.442156948E-3,1.009149011E-2,-2.076961100E-4,1.315869767E-2
1.517002200E1,-3.164282534E-3,-1.128879283E-2,-2.076961100E-4,1.172572663E-2
1.517986500E1,-9.883800521E-3,-1.006706338E-2,-2.076961100E-4,1.410951507E-2
1.518988000E1,-5.607743282E-3,5.815433338E-3,-8.185617626E-4,8.120104247E-3
1.520004900E1,3.555234987E-3,7.648028899E-3,-8.185617626E-4,8.473611108E-3
1.520988400E1,5.998696201E-3,-3.958410583E-3,-2.076961100E-4,7.190028382E-3
1.521994600E1,2.944369800E-3,-4.569276236E-3,4.031695426E-4,5.450701287E-3
1.522979500E1,-7.208215538E-4,3.982837312E-3,-1.429427415E-3,4.292532994E-3
1.524000300E1,-2.553417347E-3,3.371972591E-3,-8.185617626E-4,4.308153045E-3
1.524985700E1,-7.208215538E-4,-9.040841833E-4,-8.185617626E-4,1.416684609E-3
1.525989800E1,3.555234987E-3,-2.932194620E-4,-8.185617626E-4,3.660015960E-3
1.526995800E1,4.166100174E-3,2.761106938E-3,-8.185617626E-4,5.064597274E-3
1.527991100E1,-1.099563669E-4,9.285109118E-4,-8.185617626E-4,1.242685107E-3
1.528994900E1,-1.099563669E-4,2.761106938E-3,-8.185617626E-4,2.881986344E-3
1.529990100E1,8.442156948E-3,2.150241286E-3,-2.076961100E-4,8.714166007E-3
1.530985900E1,9.663887322E-3,-1.514949836E-3,-2.076961100E-4,9.784116151E-3
1.531990500E1,1.027475297E-2,-3.347544931E-3,4.031695426E-4,1.081384073E-2
1.532984800E1,1.271821372E-2,3.176461905E-4,-8.185617626E-4,1.274848629E-2
1.533994700E1,1.760513522E-2,3.982837312E-3,4.031695426E-4,1.805453751E-2
1.534983600E1,1.393994503E-2,6.426298525E-3,-8.185617626E-4,1.537170854E-2
1.535994900E1,1.393994503E-2,2.150241286E-3,-2.076961100E-4,1.410633697E-2
1.536988200E1,-7.440339308E-3,9.285109118E-4,-2.076961100E-4,7.500927890E-3
1.537994900E1,-8.051205426E-3,2.150241286E-3,-2.076961100E-4,8.335981291E-3
1.538983000E1,-1.942552160E-3,9.285109118E-4,-2.076961100E-4,2.163048562E-3
1.539982000E1,4.166100174E-3,-3.958410583E-3,4.031695426E-4,5.760898427E-3
1.540981700E1,6.609561387E-3,-2.125815488E-3,-2.076961100E-4,6.946116246E-3
1.541995300E1,6.609561387E-3,-2.932194620E-4,-2.076961100E-4,6.619321496E-3
1.542996900E1,7.220426574E-3,-9.040841833E-4,-2.076961100E-4,7.279770999E-3
1.544026200E1,5.998696201E-3,-1.514949836E-3,-8.185617626E-4,6.240951247E-3
1.544987300E1,1.722639427E-3,3.176461905E-4,-8.185617626E-4,1.933501760E-3
1.545995000E1,-1.942552160E-3,2.761106938E-3,-8.185617626E-4,3.473796738E-3
1.546999200E1,-3.164282534E-3,2.150241286E-3,-1.429427415E-3,4.084052433E-3
1.547995200E1,-7.208215538E-4,-2.932194620E-4,-8.185617626E-4,1.129426724E-3
1.549005300E1,4.166100174E-3,-9.040841833E-4,-2.076961100E-4,4.268125648E-3
1.549981600E1,4.776965827E-3,-2.932194620E-4,-8.185617626E-4,4.855452968E-3
1.550987000E1,1.111774123E-3,9.285109118E-4,-2.076961100E-4,1.463322209E-3
1.551985900E1,5.009088200E-4,9.285109118E-4,-8.185617626E-4,1.335322253E-3
1.552981500E1,1.722639427E-3,1.539376564E-3,-8.185617626E-4,2.450961069E-3
1.553986700E1,1.722639427E-3,9.285109118E-4,-8.185617626E-4,2.121240785E-3
1.554979100E1,-1.099563669E-4,3.176461905E-4,4.031695426E-4,5.249144550E-4
1.555991800E1,-1.099563669E-4,-9.040841833E-4,1.014033332E-3,1.362982836E-3
1.557002300E1,-1.099563669E-4,3.176461905E-4,-2.076961100E-4,3.951293195E-4
1.557999500E1,5.009088200E-4,-2.932194620E-4,4.031695426E-4,7.067057230E-4
1.558989000E1,1.111774123E-3,3.176461905E-4,-2.076961100E-4,1.174767414E-3
1.559995600E1,1.722639427E-3,-2.932194620E-4,-2.076961100E-4,1.759716432E-3
1.560984600E1,-1.099563669E-4,-2.932194620E-4,-2.076961100E-4,3.757735085E-4
1.561987700E1,-1.099563669E-4,-2.932194620E-4,-2.076961100E-4,3.757735085E-4
1.562985900E1,-1.099563669E-4,9.285109118E-4,-8.185617626E-4,1.242685107E-3
1.563986200E1,-1.099563669E-4,3.176461905E-4,-2.076961100E-4,3.951293195E-4
1.564982900E1,5.009088200E-4,3.176461905E-4,-8.185617626E-4,1.010867008E-3
1.565983100E1,5.009088200E-4,-2.932194620E-4,-2.076961100E-4,6.164616557E-4
1.566977400E1,5.009088200E-4,-2.932194620E-4,1.014033332E-3,1.168396721E-3
1.567982500E1,-1.099563669E-4,-2.932194620E-4,-2.076961100E-4,3.757735085E-4
1.569007200E1,-1.099563669E-4,3.176461905E-4,4.031695426E-4,5.249144550E-4
1.569981900E1,5.009088200E-4,1.539376564E-3,-8.185617626E-4,1.814010257E-3
1.570996500E1,-1.099563669E-4,3.176461905E-4,-8.185617626E-4,8.848914420E-4
1.571995800E1,-1.099563669E-4,3.176461905E-4,-2.076961100E-4,3.951293195E-4
1.572982200E1,1.111774123E-3,3.176461905E-4,-8.185617626E-4,1.416680685E-3
1.573988000E1,1.111774123E-3,-2.932194620E-4,-2.076961100E-4,1.168399344E-3
1.575004800E1,1.111774123E-3,9.285109118E-4,-8.185617626E-4,1.663796133E-3
1.575981400E1,5.009088200E-4,3.176461905E-4,-8.185617626E-4,1.010867008E-3
1.576999800E1,-1.099563669E-4,1.539376564E-3,-8.185617626E-4,1.746944180E-3
1.577998600E1,-1.099563669E-4,3.176461905E-4,-2.076961100E-4,3.951293195E-4
1.579000100E1,5.009088200E-4,1.539376564E-3,-2.076961100E-4,1.632092990E-3
1.579985400E1,1.111774123E-3,9.285109118E-4,4.031695426E-4,1.503569052E-3
1.580993800E1,-1.099563669E-4,9.285109118E-4,-2.076961100E-4,9.577894288E-4
1.581983500E1,-1.099563669E-4,9.285109118E-4,-2.076961100E-4,9.577894288E-4
1.582987800E1,-7.208215538E-4,3.176461905E-4,-2.076961100E-4,8.146290499E-4
1.583980700E1,-7.208215538E-4,-2.932194620E-4,-8.185617626E-4,1.129426724E-3
1.584986100E1,5.009088200E-4,3.176461905E-4,-2.076961100E-4,6.284476290E-4
1.585982900E1,-1.099563669E-4,-2.932194620E-4,-2.076961100E-4,3.757735085E-4
1.586983000E1,5.009088200E-4,3.176461905E-4,-8.185617626E-4,1.010867008E-3
1.587990800E1,-1.099563669E-4,9.285109118E-4,-2.076961100E-4,9.577894288E-4
1.588975900E1,-7.208215538E-4,9.285109118E-4,-2.076961100E-4,1.193672442E-3
1.589994500E1,-1.099563669E-4,3.176461905E-4,-2.076961100E-4,3.951293195E-4
1.590979000E1,5.009088200E-4,3.176461905E-4,-8.185617626E-4,1.010867008E-3
1.591991200E1,5.009088200E-4,9.285109118E-4,-8.185617626E-4,1.335322253E-3
1.592979800E1,1.722639427E-3,3.176461905E-4,1.014033332E-3,2.024018107E-3
1.593984600E1,-1.099563669E-4,3.176461905E-4,-2.076961100E-4,3.951293195E-4
1.594998600E1,-7.208215538E-4,3.176461905E-4,-2.076961100E-4,8.146290499E-4
1.595990900E1,-1.331686974E-3,9.285109118E-4,-2.076961100E-4,1.636661353E-3
1.596991700E1,-7.208215538E-4,3.176461905E-4,-2.076961100E-4,8.146290499E-4
1.597985900E1,1.111774123E-3,3.176461905E-4,-2.076961100E-4,1.174767414E-3
1.598979900E1,5.009088200E-4,3.176461905E-4,-8.185617626E-4,1.010867008E-3
1.599992200E1,-1.099563669E-4,-2.932194620E-4,-2.076961100E-4,3.757735085E-4
1.600991500E1,5.009088200E-4,3.176461905E-4,-8.185617626E-4,1.010867008E-3
